,acc1_x,acc1_y,acc1_z,gyro_x,gyro_y,gyro_z,acc2_x,acc2_y,acc2_z,label
0,-1.0,-257.0,-6.0,16.0,-157.0,69.0,-9.0,-1049.0,-8.0,2
1,-3.0,-257.0,-9.0,25.0,-152.0,67.0,0.0,-1044.0,-15.0,2
2,0.0,-258.0,-11.0,36.0,-144.0,65.0,1.0,-1044.0,-23.0,2
3,0.0,-255.0,-11.0,46.0,-138.0,65.0,4.0,-1040.0,-30.0,2
4,-1.0,-251.0,-5.0,51.0,-138.0,67.0,0.0,-1030.0,-25.0,2
5,3.0,-250.0,-15.0,52.0,-142.0,66.0,-5.0,-1024.0,-15.0,2
6,-6.0,-251.0,-5.0,51.0,-151.0,70.0,-15.0,-1015.0,-12.0,2
7,-7.0,-248.0,-4.0,50.0,-160.0,76.0,-15.0,-1009.0,3.0,2
8,-4.0,-247.0,-3.0,47.0,-170.0,80.0,-16.0,-1011.0,-6.0,2
9,-9.0,-248.0,-1.0,40.0,-178.0,86.0,-30.0,-1006.0,4.0,2
10,-11.0,-246.0,-5.0,29.0,-185.0,88.0,-29.0,-1009.0,-7.0,2
11,-11.0,-249.0,-7.0,14.0,-188.0,90.0,-30.0,-1013.0,2.0,2
12,-8.0,-249.0,-8.0,0.0,-192.0,87.0,-33.0,-1014.0,-7.0,2
13,-7.0,-252.0,-5.0,-18.0,-190.0,85.0,-33.0,-1018.0,-10.0,2
14,-10.0,-250.0,-8.0,-33.0,-189.0,81.0,-29.0,-1035.0,-12.0,2
15,-12.0,-256.0,-8.0,-49.0,-189.0,78.0,-34.0,-1036.0,-15.0,2
16,-11.0,-258.0,-8.0,-59.0,-189.0,73.0,-37.0,-1040.0,-16.0,2
17,-9.0,-258.0,-11.0,-62.0,-192.0,68.0,-38.0,-1045.0,-17.0,2
18,-10.0,-256.0,-9.0,-58.0,-197.0,61.0,-34.0,-1043.0,-22.0,2
19,-9.0,-258.0,-11.0,-53.0,-201.0,58.0,-27.0,-1038.0,-14.0,2
20,-7.0,-253.0,-8.0,-49.0,-204.0,58.0,-27.0,-1038.0,-16.0,2
21,-8.0,-251.0,-8.0,-45.0,-206.0,55.0,-24.0,-1034.0,-13.0,2
22,-9.0,-253.0,-11.0,-42.0,-205.0,54.0,-26.0,-1035.0,-8.0,2
23,-6.0,-254.0,-9.0,-41.0,-203.0,48.0,-24.0,-1036.0,-15.0,2
24,-7.0,-255.0,-6.0,-40.0,-198.0,42.0,-23.0,-1035.0,-8.0,2
25,-2.0,-254.0,-5.0,-41.0,-193.0,36.0,-19.0,-1038.0,-5.0,2
26,-3.0,-258.0,-4.0,-41.0,-186.0,29.0,-14.0,-1047.0,13.0,2
27,-4.0,-255.0,0.0,-38.0,-177.0,22.0,-12.0,-1051.0,16.0,2
28,0.0,-258.0,0.0,-31.0,-167.0,19.0,-9.0,-1043.0,17.0,2
29,-1.0,-255.0,-3.0,-24.0,-156.0,15.0,-3.0,-1034.0,14.0,2
30,1.0,-253.0,-1.0,-17.0,-143.0,15.0,-1.0,-1030.0,20.0,2
31,0.0,-251.0,-2.0,-7.0,-130.0,14.0,5.0,-1027.0,19.0,2
32,0.0,-248.0,-1.0,2.0,-116.0,14.0,0.0,-1015.0,15.0,2
33,0.0,-249.0,0.0,9.0,-100.0,13.0,5.0,-1010.0,25.0,2
34,1.0,-249.0,2.0,16.0,-84.0,12.0,2.0,-1009.0,31.0,2
35,-1.0,-245.0,2.0,19.0,-65.0,8.0,4.0,-1005.0,38.0,2
36,0.0,-243.0,1.0,21.0,-48.0,4.0,2.0,-1003.0,34.0,2
37,1.0,-248.0,1.0,19.0,-30.0,0.0,-6.0,-1003.0,30.0,2
38,0.0,-246.0,0.0,15.0,-13.0,-4.0,-3.0,-1010.0,27.0,2
39,-2.0,-245.0,0.0,11.0,5.0,-11.0,-8.0,-1002.0,27.0,2
40,-3.0,-246.0,-1.0,3.0,22.0,-17.0,-5.0,-1004.0,21.0,2
41,-1.0,-249.0,1.0,-2.0,39.0,-21.0,-18.0,-1008.0,17.0,2
42,-7.0,-248.0,-3.0,-7.0,55.0,-25.0,-27.0,-1007.0,12.0,2
43,-12.0,-248.0,-2.0,-12.0,68.0,-30.0,-37.0,-1012.0,12.0,2
44,-14.0,-245.0,-2.0,-18.0,78.0,-35.0,-43.0,-1017.0,7.0,2
45,-16.0,-252.0,-2.0,-22.0,87.0,-37.0,-57.0,-1020.0,12.0,2
46,-18.0,-251.0,-2.0,-24.0,93.0,-40.0,-65.0,-1023.0,16.0,2
47,-21.0,-251.0,0.0,-28.0,97.0,-44.0,-70.0,-1025.0,16.0,2
48,-19.0,-252.0,0.0,-29.0,101.0,-48.0,-78.0,-1028.0,19.0,2
49,-23.0,-251.0,0.0,-27.0,100.0,-52.0,-91.0,-1042.0,19.0,2
50,-23.0,-250.0,-1.0,-25.0,100.0,-55.0,-91.0,-1034.0,16.0,2
51,-25.0,-251.0,-3.0,-19.0,98.0,-62.0,-96.0,-1029.0,8.0,2
52,-30.0,-250.0,-2.0,-16.0,94.0,-66.0,-99.0,-1024.0,7.0,2
53,-27.0,-253.0,0.0,-13.0,91.0,-73.0,-105.0,-1025.0,13.0,2
54,-26.0,-250.0,2.0,-10.0,84.0,-75.0,-105.0,-1019.0,15.0,2
55,-27.0,-250.0,-1.0,-5.0,76.0,-79.0,-101.0,-1013.0,13.0,2
56,-29.0,-248.0,-4.0,-2.0,70.0,-82.0,-106.0,-1009.0,14.0,2
57,-28.0,-247.0,-4.0,-2.0,63.0,-82.0,-110.0,-1005.0,9.0,2
58,-30.0,-245.0,-5.0,-6.0,55.0,-81.0,-115.0,-1002.0,5.0,2
59,-33.0,-245.0,-4.0,-16.0,46.0,-81.0,-110.0,-1007.0,4.0,2
60,-31.0,-246.0,-1.0,-25.0,36.0,-81.0,-117.0,-1010.0,0.0,2
61,-33.0,-248.0,-4.0,-33.0,23.0,-77.0,-122.0,-1009.0,1.0,2
62,-34.0,-249.0,-5.0,-34.0,10.0,-77.0,-125.0,-1021.0,0.0,2
63,-35.0,-251.0,1.0,-29.0,-8.0,-75.0,-130.0,-1018.0,6.0,2
64,-37.0,-250.0,-3.0,-23.0,-27.0,-72.0,-131.0,-1021.0,5.0,2
65,-36.0,-251.0,0.0,-15.0,-47.0,-72.0,-129.0,-1025.0,12.0,2
66,-35.0,-248.0,0.0,-6.0,-67.0,-72.0,-136.0,-1023.0,16.0,2
67,-36.0,-250.0,2.0,0.0,-87.0,-73.0,-137.0,-1024.0,33.0,2
68,-35.0,-253.0,3.0,4.0,-104.0,-73.0,-135.0,-1031.0,28.0,2
69,-33.0,-252.0,6.0,7.0,-123.0,-76.0,-129.0,-1035.0,46.0,2
70,-33.0,-252.0,7.0,10.0,-140.0,-75.0,-124.0,-1041.0,47.0,2
71,-33.0,-255.0,9.0,15.0,-154.0,-76.0,-117.0,-1042.0,56.0,2
72,-32.0,-255.0,6.0,21.0,-166.0,-77.0,-119.0,-1043.0,53.0,2
73,-30.0,-253.0,12.0,27.0,-178.0,-79.0,-127.0,-1049.0,45.0,2
74,-38.0,-256.0,6.0,38.0,-192.0,-82.0,-143.0,-1053.0,39.0,2
75,-37.0,-258.0,1.0,51.0,-212.0,-84.0,-141.0,-1051.0,25.0,2
76,-41.0,-256.0,3.0,63.0,-234.0,-84.0,-140.0,-1048.0,13.0,2
77,-34.0,-258.0,0.0,72.0,-253.0,-85.0,-134.0,-1041.0,15.0,2
78,-37.0,-256.0,-2.0,76.0,-266.0,-82.0,-125.0,-1039.0,9.0,2
79,-31.0,-259.0,-2.0,77.0,-276.0,-77.0,-129.0,-1059.0,8.0,2
80,-33.0,-259.0,-2.0,82.0,-283.0,-76.0,-122.0,-1054.0,7.0,2
81,-28.0,-256.0,0.0,94.0,-289.0,-72.0,-101.0,-1045.0,15.0,2
82,-23.0,-258.0,-1.0,107.0,-292.0,-68.0,-91.0,-1047.0,13.0,2
83,-21.0,-258.0,1.0,117.0,-285.0,-63.0,-80.0,-1046.0,15.0,2
84,-17.0,-257.0,-1.0,130.0,-281.0,-63.0,-67.0,-1042.0,7.0,2
85,-15.0,-254.0,-7.0,148.0,-278.0,-62.0,-50.0,-1037.0,-7.0,2
86,-5.0,-250.0,-6.0,162.0,-270.0,-61.0,-29.0,-1024.0,-17.0,2
87,-1.0,-249.0,-8.0,174.0,-263.0,-61.0,-8.0,-1012.0,-20.0,2
88,0.0,-248.0,-8.0,180.0,-255.0,-60.0,0.0,-1002.0,-25.0,2
89,0.0,-242.0,-11.0,182.0,-247.0,-62.0,13.0,-999.0,-27.0,2
90,2.0,-241.0,-10.0,186.0,-238.0,-66.0,19.0,-989.0,-30.0,2
91,4.0,-238.0,-16.0,186.0,-227.0,-67.0,24.0,-975.0,-50.0,2
92,6.0,-238.0,-21.0,181.0,-214.0,-68.0,31.0,-976.0,-57.0,2
93,10.0,-238.0,-22.0,170.0,-197.0,-67.0,45.0,-969.0,-61.0,2
94,13.0,-233.0,-22.0,161.0,-184.0,-63.0,67.0,-968.0,-58.0,2
95,20.0,-234.0,-16.0,152.0,-172.0,-55.0,91.0,-968.0,-38.0,2
96,23.0,-232.0,-10.0,143.0,-158.0,-47.0,95.0,-960.0,-28.0,2
97,27.0,-237.0,-9.0,132.0,-150.0,-35.0,106.0,-959.0,-8.0,2
98,26.0,-237.0,-6.0,115.0,-142.0,-27.0,102.0,-959.0,4.0,2
99,21.0,-238.0,-3.0,97.0,-137.0,-20.0,93.0,-970.0,13.0,2
100,19.0,-241.0,3.0,82.0,-135.0,-10.0,88.0,-986.0,27.0,2
101,18.0,-247.0,9.0,74.0,-137.0,-1.0,81.0,-998.0,44.0,2
102,20.0,-249.0,10.0,71.0,-142.0,14.0,82.0,-1025.0,66.0,2
103,22.0,-256.0,6.0,67.0,-150.0,30.0,90.0,-1048.0,57.0,2
104,21.0,-267.0,3.0,62.0,-152.0,42.0,92.0,-1089.0,39.0,2
105,12.0,-276.0,7.0,51.0,-152.0,43.0,66.0,-1132.0,32.0,2
106,6.0,-284.0,10.0,37.0,-164.0,34.0,44.0,-1164.0,60.0,2
107,4.0,-295.0,14.0,29.0,-194.0,21.0,43.0,-1196.0,83.0,2
108,7.0,-299.0,12.0,35.0,-230.0,3.0,38.0,-1219.0,71.0,2
109,7.0,-304.0,13.0,47.0,-251.0,-16.0,35.0,-1231.0,68.0,2
110,8.0,-304.0,14.0,74.0,-268.0,-46.0,41.0,-1241.0,69.0,2
111,6.0,-300.0,14.0,115.0,-275.0,-83.0,32.0,-1217.0,76.0,2
112,10.0,-292.0,19.0,168.0,-277.0,-116.0,32.0,-1187.0,97.0,2
113,7.0,-279.0,18.0,222.0,-279.0,-146.0,43.0,-1139.0,108.0,2
114,13.0,-271.0,23.0,264.0,-289.0,-176.0,58.0,-1108.0,111.0,2
115,15.0,-260.0,25.0,281.0,-306.0,-205.0,70.0,-1074.0,126.0,2
116,17.0,-253.0,26.0,272.0,-321.0,-232.0,77.0,-1050.0,121.0,2
117,19.0,-250.0,25.0,240.0,-335.0,-258.0,81.0,-1029.0,111.0,2
118,22.0,-248.0,22.0,200.0,-347.0,-281.0,87.0,-1011.0,95.0,2
119,22.0,-249.0,20.0,159.0,-359.0,-305.0,90.0,-1010.0,91.0,2
120,24.0,-245.0,19.0,117.0,-372.0,-326.0,96.0,-1001.0,82.0,2
121,27.0,-241.0,5.0,82.0,-381.0,-348.0,106.0,-992.0,46.0,2
122,21.0,-241.0,8.0,31.0,-372.0,-368.0,90.0,-991.0,48.0,2
123,25.0,-242.0,13.0,-18.0,-365.0,-375.0,97.0,-990.0,78.0,2
124,23.0,-243.0,17.0,-42.0,-369.0,-380.0,104.0,-996.0,94.0,2
125,29.0,-245.0,26.0,-39.0,-367.0,-389.0,107.0,-992.0,105.0,2
126,30.0,-245.0,26.0,-23.0,-362.0,-396.0,107.0,-992.0,127.0,2
127,28.0,-242.0,24.0,-8.0,-358.0,-397.0,104.0,-989.0,123.0,2
128,28.0,-240.0,29.0,3.0,-359.0,-397.0,102.0,-985.0,132.0,2
129,26.0,-238.0,30.0,14.0,-355.0,-393.0,105.0,-978.0,131.0,2
130,26.0,-236.0,25.0,22.0,-351.0,-389.0,108.0,-966.0,122.0,2
131,23.0,-235.0,19.0,21.0,-347.0,-384.0,107.0,-960.0,107.0,2
132,29.0,-232.0,24.0,9.0,-342.0,-378.0,112.0,-954.0,106.0,2
133,30.0,-229.0,20.0,-1.0,-342.0,-373.0,122.0,-944.0,104.0,2
134,34.0,-227.0,20.0,-7.0,-339.0,-366.0,117.0,-933.0,94.0,2
135,31.0,-224.0,18.0,-16.0,-333.0,-358.0,129.0,-927.0,92.0,2
136,36.0,-222.0,18.0,-30.0,-326.0,-347.0,135.0,-918.0,101.0,2
137,37.0,-224.0,21.0,-42.0,-315.0,-339.0,141.0,-921.0,102.0,2
138,33.0,-219.0,19.0,-53.0,-305.0,-329.0,140.0,-920.0,108.0,2
139,35.0,-221.0,24.0,-63.0,-297.0,-319.0,137.0,-922.0,117.0,2
140,35.0,-226.0,26.0,-74.0,-291.0,-305.0,142.0,-932.0,126.0,2
141,35.0,-227.0,30.0,-85.0,-288.0,-291.0,128.0,-936.0,138.0,2
142,34.0,-230.0,31.0,-94.0,-285.0,-275.0,124.0,-943.0,144.0,2
143,31.0,-237.0,31.0,-104.0,-284.0,-259.0,120.0,-955.0,148.0,2
144,28.0,-239.0,32.0,-106.0,-282.0,-243.0,112.0,-966.0,158.0,2
145,27.0,-239.0,34.0,-103.0,-280.0,-229.0,103.0,-972.0,163.0,2
146,26.0,-238.0,34.0,-96.0,-280.0,-213.0,98.0,-973.0,164.0,2
147,24.0,-243.0,38.0,-82.0,-280.0,-197.0,95.0,-983.0,164.0,2
148,23.0,-238.0,37.0,-68.0,-282.0,-182.0,96.0,-974.0,166.0,2
149,25.0,-241.0,36.0,-48.0,-283.0,-170.0,102.0,-980.0,162.0,2
150,26.0,-240.0,34.0,-28.0,-282.0,-157.0,100.0,-976.0,160.0,2
151,29.0,-238.0,33.0,-8.0,-279.0,-143.0,101.0,-978.0,158.0,2
152,28.0,-237.0,36.0,9.0,-277.0,-130.0,111.0,-967.0,165.0,2
153,30.0,-234.0,35.0,26.0,-270.0,-114.0,119.0,-959.0,164.0,2
154,36.0,-233.0,33.0,43.0,-262.0,-100.0,135.0,-954.0,162.0,2
155,38.0,-231.0,30.0,56.0,-248.0,-86.0,140.0,-948.0,149.0,2
156,40.0,-231.0,33.0,68.0,-232.0,-75.0,150.0,-946.0,158.0,2
157,41.0,-228.0,27.0,74.0,-218.0,-69.0,161.0,-940.0,151.0,2
158,41.0,-229.0,29.0,78.0,-204.0,-62.0,169.0,-943.0,155.0,2
159,48.0,-232.0,32.0,83.0,-188.0,-60.0,180.0,-945.0,159.0,2
160,50.0,-230.0,34.0,85.0,-169.0,-55.0,186.0,-947.0,152.0,2
161,51.0,-232.0,28.0,83.0,-149.0,-51.0,189.0,-954.0,157.0,2
162,47.0,-233.0,31.0,78.0,-127.0,-50.0,182.0,-959.0,155.0,2
163,47.0,-233.0,33.0,74.0,-108.0,-46.0,177.0,-965.0,158.0,2
164,45.0,-239.0,32.0,71.0,-94.0,-40.0,165.0,-972.0,154.0,2
165,41.0,-242.0,35.0,69.0,-81.0,-37.0,159.0,-980.0,151.0,2
166,39.0,-244.0,35.0,69.0,-73.0,-33.0,155.0,-996.0,160.0,2
167,37.0,-245.0,35.0,77.0,-63.0,-31.0,146.0,-1004.0,170.0,2
168,36.0,-246.0,40.0,90.0,-53.0,-30.0,128.0,-1005.0,169.0,2
169,30.0,-250.0,38.0,109.0,-44.0,-31.0,123.0,-1014.0,182.0,2
170,26.0,-251.0,40.0,129.0,-44.0,-34.0,101.0,-1008.0,187.0,2
171,24.0,-246.0,42.0,145.0,-46.0,-39.0,90.0,-1007.0,190.0,2
172,19.0,-245.0,38.0,158.0,-52.0,-44.0,82.0,-1000.0,185.0,2
173,19.0,-243.0,40.0,164.0,-60.0,-45.0,72.0,-1001.0,175.0,2
174,20.0,-244.0,37.0,160.0,-68.0,-44.0,74.0,-991.0,180.0,2
175,18.0,-243.0,35.0,151.0,-77.0,-44.0,62.0,-989.0,169.0,2
176,13.0,-243.0,37.0,138.0,-86.0,-38.0,56.0,-995.0,170.0,2
177,11.0,-244.0,36.0,126.0,-95.0,-33.0,55.0,-992.0,163.0,2
178,13.0,-244.0,40.0,113.0,-106.0,-27.0,58.0,-998.0,164.0,2
179,15.0,-244.0,35.0,96.0,-118.0,-17.0,54.0,-999.0,167.0,2
180,12.0,-245.0,37.0,78.0,-136.0,-2.0,60.0,-998.0,162.0,2
181,18.0,-247.0,36.0,57.0,-154.0,16.0,76.0,-1019.0,169.0,2
182,22.0,-254.0,41.0,35.0,-174.0,34.0,87.0,-1029.0,177.0,2
183,26.0,-256.0,42.0,18.0,-195.0,50.0,97.0,-1047.0,191.0,2
184,30.0,-264.0,42.0,6.0,-214.0,60.0,113.0,-1067.0,205.0,2
185,28.0,-263.0,46.0,3.0,-234.0,71.0,108.0,-1087.0,217.0,2
186,30.0,-268.0,51.0,0.0,-254.0,80.0,112.0,-1093.0,233.0,2
187,31.0,-267.0,56.0,-7.0,-275.0,89.0,115.0,-1106.0,251.0,2
188,30.0,-268.0,56.0,-13.0,-291.0,95.0,126.0,-1107.0,257.0,2
189,33.0,-266.0,56.0,-18.0,-309.0,99.0,136.0,-1111.0,258.0,2
190,37.0,-269.0,59.0,-23.0,-323.0,98.0,145.0,-1112.0,258.0,2
191,37.0,-271.0,60.0,-25.0,-332.0,93.0,149.0,-1121.0,261.0,2
192,45.0,-276.0,56.0,-22.0,-340.0,87.0,167.0,-1121.0,250.0,2
193,50.0,-276.0,54.0,-23.0,-346.0,79.0,179.0,-1126.0,235.0,2
194,53.0,-275.0,48.0,-34.0,-347.0,67.0,202.0,-1132.0,229.0,2
195,61.0,-278.0,45.0,-61.0,-348.0,53.0,221.0,-1141.0,205.0,2
196,66.0,-281.0,48.0,-101.0,-344.0,39.0,261.0,-1162.0,209.0,2
197,80.0,-287.0,56.0,-147.0,-334.0,19.0,297.0,-1171.0,202.0,2
198,87.0,-289.0,43.0,-186.0,-315.0,-5.0,335.0,-1187.0,203.0,2
199,95.0,-295.0,41.0,-207.0,-286.0,-30.0,368.0,-1195.0,197.0,2
200,100.0,-296.0,39.0,-219.0,-254.0,-56.0,390.0,-1191.0,192.0,2
201,102.0,-291.0,35.0,-226.0,-222.0,-85.0,406.0,-1193.0,184.0,2
202,104.0,-292.0,35.0,-234.0,-195.0,-113.0,410.0,-1190.0,161.0,2
203,105.0,-294.0,30.0,-240.0,-170.0,-139.0,404.0,-1194.0,153.0,2
204,103.0,-299.0,29.0,-244.0,-145.0,-164.0,401.0,-1204.0,136.0,2
205,101.0,-303.0,27.0,-242.0,-119.0,-186.0,406.0,-1227.0,129.0,2
206,99.0,-308.0,25.0,-232.0,-88.0,-206.0,392.0,-1245.0,123.0,2
207,95.0,-315.0,33.0,-210.0,-50.0,-225.0,385.0,-1265.0,131.0,2
208,94.0,-317.0,29.0,-173.0,-11.0,-243.0,369.0,-1283.0,143.0,2
209,91.0,-319.0,36.0,-114.0,30.0,-256.0,352.0,-1278.0,166.0,2
210,86.0,-314.0,38.0,-35.0,77.0,-262.0,326.0,-1261.0,177.0,2
211,78.0,-305.0,29.0,55.0,129.0,-261.0,297.0,-1236.0,165.0,2
212,68.0,-299.0,23.0,143.0,173.0,-254.0,271.0,-1211.0,134.0,2
213,70.0,-293.0,10.0,218.0,219.0,-237.0,266.0,-1186.0,68.0,2
214,65.0,-290.0,-2.0,270.0,260.0,-209.0,253.0,-1174.0,19.0,2
215,61.0,-285.0,-21.0,310.0,296.0,-175.0,249.0,-1160.0,-49.0,2
216,61.0,-285.0,-35.0,340.0,330.0,-142.0,242.0,-1149.0,-99.0,2
217,60.0,-282.0,-47.0,364.0,366.0,-105.0,234.0,-1141.0,-148.0,2
218,60.0,-278.0,-51.0,380.0,396.0,-69.0,241.0,-1138.0,-196.0,2
219,58.0,-276.0,-67.0,397.0,423.0,-41.0,242.0,-1127.0,-231.0,2
220,59.0,-274.0,-71.0,419.0,453.0,-13.0,226.0,-1113.0,-251.0,2
221,55.0,-266.0,-76.0,442.0,483.0,9.0,222.0,-1089.0,-289.0,2
222,56.0,-263.0,-84.0,463.0,514.0,23.0,223.0,-1082.0,-313.0,2
223,54.0,-259.0,-89.0,475.0,544.0,28.0,205.0,-1067.0,-333.0,2
224,42.0,-258.0,-84.0,468.0,567.0,20.0,177.0,-1050.0,-324.0,2
225,35.0,-257.0,-80.0,446.0,576.0,5.0,150.0,-1042.0,-294.0,2
226,30.0,-253.0,-66.0,420.0,574.0,-14.0,132.0,-1028.0,-253.0,2
227,27.0,-248.0,-64.0,397.0,575.0,-29.0,111.0,-1019.0,-231.0,2
228,20.0,-244.0,-57.0,364.0,582.0,-39.0,103.0,-1009.0,-215.0,2
229,14.0,-241.0,-57.0,315.0,593.0,-41.0,75.0,-998.0,-198.0,2
230,9.0,-240.0,-51.0,253.0,601.0,-33.0,51.0,-985.0,-183.0,2
231,0.0,-242.0,-48.0,181.0,603.0,-17.0,23.0,-988.0,-174.0,2
232,-6.0,-241.0,-45.0,109.0,595.0,3.0,2.0,-991.0,-151.0,2
233,-9.0,-240.0,-42.0,51.0,579.0,27.0,-20.0,-1005.0,-146.0,2
234,-14.0,-247.0,-40.0,8.0,558.0,55.0,-40.0,-1010.0,-136.0,2
235,-17.0,-253.0,-42.0,-21.0,540.0,82.0,-50.0,-1032.0,-138.0,2
236,-19.0,-257.0,-43.0,-42.0,523.0,112.0,-67.0,-1061.0,-134.0,2
237,-23.0,-261.0,-36.0,-51.0,504.0,144.0,-75.0,-1074.0,-118.0,2
238,-22.0,-264.0,-41.0,-48.0,494.0,180.0,-75.0,-1093.0,-114.0,2
239,-20.0,-277.0,-43.0,-42.0,494.0,217.0,-64.0,-1120.0,-137.0,2
240,-15.0,-278.0,-35.0,-45.0,503.0,250.0,-58.0,-1136.0,-119.0,2
241,-10.0,-282.0,-35.0,-40.0,519.0,276.0,-38.0,-1150.0,-110.0,2
242,-4.0,-284.0,-23.0,-30.0,543.0,300.0,-23.0,-1152.0,-80.0,2
243,-3.0,-280.0,-34.0,-4.0,572.0,324.0,-11.0,-1147.0,-96.0,2
244,-1.0,-276.0,-37.0,6.0,608.0,350.0,-15.0,-1129.0,-109.0,2
245,1.0,-270.0,-34.0,2.0,648.0,385.0,12.0,-1104.0,-112.0,2
246,5.0,-262.0,-33.0,-4.0,684.0,414.0,36.0,-1078.0,-101.0,2
247,16.0,-259.0,-35.0,-3.0,712.0,434.0,67.0,-1062.0,-98.0,2
248,16.0,-256.0,-31.0,4.0,731.0,443.0,87.0,-1043.0,-97.0,2
249,23.0,-253.0,-37.0,5.0,744.0,451.0,98.0,-1038.0,-117.0,2
250,20.0,-253.0,-29.0,-17.0,750.0,466.0,90.0,-1029.0,-95.0,2
251,23.0,-246.0,-37.0,-28.0,747.0,490.0,105.0,-1010.0,-110.0,2
252,26.0,-245.0,-31.0,-40.0,754.0,512.0,95.0,-999.0,-100.0,2
253,26.0,-240.0,-30.0,-49.0,776.0,531.0,105.0,-979.0,-94.0,2
254,30.0,-237.0,-25.0,-46.0,799.0,543.0,116.0,-961.0,-86.0,2
255,32.0,-229.0,-11.0,-30.0,817.0,548.0,119.0,-929.0,-25.0,2
256,32.0,-227.0,-22.0,38.0,839.0,547.0,121.0,-925.0,-71.0,2
257,24.0,-219.0,-28.0,76.0,871.0,548.0,108.0,-910.0,-87.0,2
258,24.0,-219.0,-28.0,89.0,899.0,553.0,96.0,-885.0,-92.0,2
259,16.0,-211.0,-22.0,85.0,918.0,554.0,67.0,-867.0,-86.0,2
260,14.0,-206.0,-23.0,83.0,936.0,552.0,59.0,-848.0,-71.0,2
261,10.0,-197.0,-22.0,85.0,947.0,545.0,42.0,-818.0,-67.0,2
262,2.0,-193.0,-23.0,69.0,956.0,534.0,18.0,-797.0,-69.0,2
263,0.0,-191.0,-23.0,34.0,961.0,530.0,-6.0,-781.0,-74.0,2
264,-11.0,-186.0,-24.0,-12.0,967.0,528.0,-28.0,-767.0,-73.0,2
265,-12.0,-186.0,-22.0,-57.0,973.0,526.0,-52.0,-766.0,-69.0,2
266,-20.0,-183.0,-22.0,-100.0,968.0,520.0,-67.0,-776.0,-67.0,2
267,-21.0,-191.0,-18.0,-139.0,957.0,511.0,-88.0,-773.0,-52.0,2
268,-32.0,-190.0,-14.0,-167.0,948.0,503.0,-116.0,-772.0,-43.0,2
269,-37.0,-189.0,-18.0,-181.0,938.0,499.0,-138.0,-778.0,-37.0,2
270,-41.0,-189.0,-11.0,-190.0,917.0,503.0,-150.0,-786.0,-36.0,2
271,-43.0,-192.0,-15.0,-207.0,888.0,500.0,-157.0,-790.0,-36.0,2
272,-42.0,-200.0,-2.0,-231.0,853.0,493.0,-170.0,-797.0,-34.0,2
273,-48.0,-195.0,-10.0,-255.0,818.0,483.0,-178.0,-806.0,-28.0,2
274,-50.0,-199.0,-12.0,-277.0,778.0,473.0,-187.0,-817.0,-19.0,2
275,-51.0,-200.0,-3.0,-296.0,735.0,464.0,-185.0,-829.0,-11.0,2
276,-47.0,-205.0,-1.0,-308.0,696.0,452.0,-185.0,-839.0,15.0,2
277,-47.0,-207.0,2.0,-314.0,661.0,444.0,-174.0,-860.0,16.0,2
278,-44.0,-214.0,11.0,-323.0,634.0,432.0,-161.0,-869.0,54.0,2
279,-41.0,-215.0,22.0,-307.0,608.0,415.0,-157.0,-870.0,94.0,2
280,-34.0,-213.0,13.0,-272.0,579.0,401.0,-143.0,-879.0,72.0,2
281,-33.0,-217.0,13.0,-262.0,559.0,387.0,-139.0,-889.0,74.0,2
282,-31.0,-221.0,12.0,-277.0,541.0,364.0,-120.0,-898.0,79.0,2
283,-33.0,-222.0,16.0,-306.0,523.0,337.0,-117.0,-906.0,91.0,2
284,-30.0,-223.0,19.0,-327.0,506.0,306.0,-122.0,-920.0,100.0,2
285,-31.0,-229.0,24.0,-328.0,485.0,282.0,-116.0,-929.0,99.0,2
286,-36.0,-227.0,24.0,-312.0,463.0,253.0,-123.0,-927.0,108.0,2
287,-36.0,-228.0,25.0,-283.0,440.0,224.0,-137.0,-927.0,114.0,2
288,-37.0,-227.0,27.0,-247.0,419.0,194.0,-139.0,-928.0,120.0,2
289,-38.0,-225.0,17.0,-204.0,392.0,165.0,-141.0,-930.0,93.0,2
290,-40.0,-224.0,13.0,-185.0,354.0,139.0,-145.0,-920.0,92.0,2
291,-39.0,-224.0,19.0,-181.0,326.0,114.0,-148.0,-916.0,87.0,2
292,-38.0,-221.0,26.0,-169.0,309.0,92.0,-151.0,-909.0,100.0,2
293,-41.0,-218.0,22.0,-146.0,287.0,73.0,-149.0,-903.0,109.0,2
294,-36.0,-217.0,24.0,-118.0,257.0,53.0,-140.0,-887.0,112.0,2
295,-34.0,-215.0,25.0,-87.0,229.0,35.0,-120.0,-876.0,128.0,2
296,-30.0,-213.0,30.0,-60.0,205.0,20.0,-107.0,-871.0,125.0,2
297,-25.0,-210.0,31.0,-40.0,186.0,5.0,-96.0,-865.0,140.0,2
298,-20.0,-212.0,30.0,-20.0,174.0,-10.0,-80.0,-864.0,150.0,2
299,-18.0,-210.0,35.0,-4.0,166.0,-23.0,-61.0,-865.0,152.0,2
300,-14.0,-212.0,37.0,5.0,162.0,-37.0,-55.0,-862.0,154.0,2
301,-9.0,-212.0,38.0,13.0,159.0,-50.0,-42.0,-867.0,160.0,2
302,-7.0,-218.0,38.0,14.0,159.0,-63.0,-37.0,-877.0,171.0,2
303,-6.0,-217.0,39.0,9.0,160.0,-78.0,-26.0,-884.0,171.0,2
304,-6.0,-219.0,44.0,-2.0,165.0,-89.0,-27.0,-908.0,190.0,2
305,-4.0,-223.0,44.0,-12.0,169.0,-101.0,-23.0,-928.0,194.0,2
306,-3.0,-233.0,44.0,-24.0,174.0,-108.0,-16.0,-953.0,198.0,2
307,-3.0,-234.0,47.0,-32.0,188.0,-116.0,-15.0,-969.0,207.0,2
308,-4.0,-239.0,48.0,-32.0,204.0,-123.0,-10.0,-987.0,209.0,2
309,-1.0,-245.0,46.0,-32.0,223.0,-127.0,-11.0,-997.0,206.0,2
310,-1.0,-249.0,41.0,-32.0,242.0,-124.0,-22.0,-1003.0,190.0,2
311,-11.0,-245.0,35.0,-40.0,260.0,-121.0,-48.0,-1011.0,155.0,2
312,-17.0,-252.0,27.0,-56.0,278.0,-119.0,-61.0,-1023.0,133.0,2
313,-25.0,-253.0,18.0,-77.0,285.0,-116.0,-100.0,-1039.0,82.0,2
314,-40.0,-255.0,9.0,-99.0,288.0,-110.0,-145.0,-1051.0,44.0,2
315,-52.0,-260.0,0.0,-121.0,285.0,-104.0,-192.0,-1072.0,0.0,2
316,-57.0,-266.0,-16.0,-145.0,271.0,-94.0,-210.0,-1083.0,-43.0,2
317,-57.0,-273.0,-21.0,-158.0,245.0,-74.0,-206.0,-1115.0,-59.0,2
318,-59.0,-280.0,-18.0,-163.0,220.0,-51.0,-216.0,-1154.0,-69.0,2
319,-57.0,-288.0,-21.0,-191.0,189.0,-21.0,-209.0,-1186.0,-53.0,2
320,-56.0,-305.0,-6.0,-245.0,152.0,8.0,-204.0,-1243.0,-6.0,2
321,-55.0,-324.0,7.0,-290.0,135.0,47.0,-210.0,-1313.0,47.0,2
322,-59.0,-334.0,30.0,-306.0,129.0,87.0,-232.0,-1362.0,119.0,2
323,-62.0,-345.0,38.0,-274.0,133.0,132.0,-237.0,-1399.0,186.0,2
324,-55.0,-347.0,50.0,-196.0,143.0,179.0,-214.0,-1408.0,225.0,2
325,-40.0,-349.0,61.0,-82.0,159.0,228.0,-170.0,-1412.0,248.0,2
326,-25.0,-337.0,61.0,41.0,183.0,267.0,-125.0,-1384.0,277.0,2
327,-24.0,-328.0,65.0,157.0,206.0,295.0,-95.0,-1339.0,281.0,2
328,-20.0,-318.0,58.0,251.0,225.0,313.0,-77.0,-1291.0,246.0,2
329,-16.0,-300.0,46.0,298.0,228.0,324.0,-63.0,-1239.0,200.0,2
330,-17.0,-291.0,30.0,277.0,227.0,337.0,-64.0,-1197.0,137.0,2
331,-15.0,-289.0,15.0,188.0,238.0,353.0,-75.0,-1185.0,91.0,2
332,-23.0,-289.0,14.0,46.0,255.0,382.0,-87.0,-1203.0,73.0,2
333,-30.0,-301.0,16.0,-113.0,277.0,426.0,-108.0,-1246.0,85.0,2
334,-32.0,-320.0,22.0,-255.0,294.0,463.0,-120.0,-1303.0,106.0,2
335,-27.0,-335.0,26.0,-348.0,304.0,486.0,-104.0,-1369.0,111.0,2
336,-30.0,-352.0,17.0,-379.0,311.0,497.0,-114.0,-1430.0,94.0,2
337,-41.0,-375.0,27.0,-362.0,323.0,497.0,-167.0,-1493.0,71.0,2
338,-59.0,-378.0,4.0,-304.0,323.0,486.0,-225.0,-1526.0,55.0,2
339,-73.0,-383.0,-1.0,-201.0,300.0,460.0,-273.0,-1533.0,13.0,2
340,-81.0,-372.0,-21.0,-52.0,262.0,423.0,-318.0,-1501.0,-54.0,2
341,-87.0,-357.0,-46.0,127.0,219.0,377.0,-324.0,-1447.0,-129.0,2
342,-85.0,-338.0,-61.0,296.0,170.0,329.0,-314.0,-1387.0,-197.0,2
343,-87.0,-326.0,-70.0,430.0,129.0,281.0,-319.0,-1326.0,-272.0,2
344,-93.0,-314.0,-90.0,522.0,93.0,232.0,-354.0,-1283.0,-331.0,2
345,-99.0,-306.0,-105.0,587.0,48.0,191.0,-370.0,-1236.0,-390.0,2
346,-96.0,-295.0,-120.0,632.0,-14.0,168.0,-349.0,-1199.0,-454.0,2
347,-88.0,-284.0,-136.0,659.0,-76.0,167.0,-340.0,-1175.0,-530.0,2
348,-80.0,-279.0,-143.0,654.0,-122.0,191.0,-304.0,-1156.0,-571.0,2
349,-62.0,-280.0,-148.0,616.0,-151.0,223.0,-219.0,-1144.0,-589.0,2
350,-45.0,-279.0,-145.0,569.0,-165.0,254.0,-137.0,-1135.0,-578.0,2
351,-9.0,-282.0,-140.0,542.0,-176.0,281.0,-18.0,-1142.0,-551.0,2
352,23.0,-282.0,-127.0,533.0,-178.0,293.0,99.0,-1141.0,-497.0,2
353,42.0,-276.0,-115.0,549.0,-171.0,276.0,179.0,-1124.0,-445.0,2
354,44.0,-273.0,-109.0,580.0,-161.0,230.0,192.0,-1107.0,-404.0,2
355,37.0,-265.0,-95.0,600.0,-157.0,170.0,164.0,-1073.0,-367.0,2
356,24.0,-254.0,-97.0,595.0,-178.0,104.0,110.0,-1037.0,-364.0,2
357,8.0,-244.0,-92.0,559.0,-207.0,35.0,56.0,-1004.0,-357.0,2
358,0.0,-240.0,-96.0,511.0,-231.0,-28.0,15.0,-981.0,-366.0,2
359,-12.0,-234.0,-92.0,443.0,-253.0,-85.0,-27.0,-968.0,-356.0,2
360,-24.0,-229.0,-93.0,357.0,-280.0,-132.0,-71.0,-966.0,-353.0,2
361,-38.0,-236.0,-96.0,257.0,-304.0,-171.0,-117.0,-971.0,-354.0,2
362,-52.0,-244.0,-87.0,155.0,-326.0,-203.0,-180.0,-997.0,-336.0,2
363,-56.0,-251.0,-71.0,70.0,-348.0,-227.0,-204.0,-1024.0,-284.0,2
364,-50.0,-262.0,-64.0,24.0,-379.0,-242.0,-180.0,-1072.0,-230.0,2
365,-39.0,-272.0,-44.0,21.0,-410.0,-262.0,-145.0,-1116.0,-158.0,2
366,-35.0,-283.0,-30.0,54.0,-430.0,-292.0,-125.0,-1152.0,-108.0,2
367,-22.0,-286.0,-16.0,101.0,-446.0,-325.0,-99.0,-1163.0,-59.0,2
368,-19.0,-286.0,-9.0,153.0,-467.0,-369.0,-72.0,-1168.0,-15.0,2
369,-16.0,-277.0,-9.0,204.0,-508.0,-424.0,-57.0,-1140.0,-17.0,2
370,-12.0,-279.0,-12.0,246.0,-564.0,-489.0,-28.0,-1120.0,-23.0,2
371,-4.0,-264.0,-31.0,299.0,-634.0,-558.0,-10.0,-1096.0,-88.0,2
372,2.0,-261.0,-43.0,335.0,-699.0,-617.0,19.0,-1064.0,-137.0,2
373,5.0,-252.0,-50.0,369.0,-748.0,-665.0,34.0,-1024.0,-184.0,2
374,9.0,-244.0,-63.0,393.0,-772.0,-703.0,54.0,-990.0,-234.0,2
375,12.0,-235.0,-68.0,395.0,-771.0,-730.0,51.0,-947.0,-260.0,2
376,9.0,-224.0,-72.0,375.0,-746.0,-748.0,47.0,-926.0,-273.0,2
377,1.0,-213.0,-69.0,327.0,-712.0,-759.0,25.0,-899.0,-264.0,2
378,0.0,-213.0,-63.0,262.0,-676.0,-759.0,4.0,-870.0,-227.0,2
379,-7.0,-203.0,-60.0,204.0,-650.0,-751.0,-28.0,-850.0,-217.0,2
380,-11.0,-202.0,-54.0,138.0,-624.0,-733.0,-51.0,-834.0,-193.0,2
381,-17.0,-200.0,-34.0,90.0,-599.0,-714.0,-54.0,-824.0,-116.0,2
382,-19.0,-196.0,-25.0,101.0,-589.0,-700.0,-66.0,-810.0,-82.0,2
383,-21.0,-194.0,-20.0,141.0,-593.0,-687.0,-85.0,-784.0,-63.0,2
384,-19.0,-189.0,-17.0,182.0,-600.0,-665.0,-75.0,-763.0,-57.0,2
385,-20.0,-182.0,-15.0,217.0,-604.0,-640.0,-73.0,-751.0,-37.0,2
386,-13.0,-178.0,-11.0,246.0,-611.0,-615.0,-58.0,-732.0,-26.0,2
387,-12.0,-178.0,-16.0,256.0,-624.0,-597.0,-48.0,-729.0,-41.0,2
388,-6.0,-175.0,-11.0,243.0,-643.0,-581.0,-20.0,-723.0,-41.0,2
389,0.0,-176.0,-18.0,228.0,-659.0,-570.0,8.0,-713.0,-50.0,2
390,6.0,-171.0,-19.0,206.0,-670.0,-562.0,36.0,-703.0,-53.0,2
391,18.0,-170.0,-27.0,167.0,-674.0,-549.0,69.0,-714.0,-67.0,2
392,21.0,-172.0,-13.0,109.0,-667.0,-528.0,88.0,-708.0,-40.0,2
393,24.0,-170.0,-17.0,62.0,-654.0,-501.0,101.0,-704.0,-45.0,2
394,35.0,-175.0,-25.0,12.0,-638.0,-471.0,138.0,-729.0,-74.0,2
395,38.0,-179.0,-9.0,-72.0,-619.0,-446.0,158.0,-746.0,-22.0,2
396,48.0,-185.0,4.0,-115.0,-608.0,-431.0,177.0,-747.0,36.0,2
397,48.0,-183.0,7.0,-96.0,-592.0,-417.0,180.0,-743.0,48.0,2
398,55.0,-188.0,-21.0,-72.0,-588.0,-405.0,208.0,-794.0,-82.0,2
399,50.0,-188.0,-2.0,-166.0,-564.0,-406.0,192.0,-774.0,-2.0,2
400,43.0,-188.0,0.0,-229.0,-512.0,-387.0,173.0,-778.0,0.0,2
401,40.0,-199.0,12.0,-263.0,-462.0,-362.0,160.0,-804.0,58.0,2
402,42.0,-202.0,16.0,-242.0,-437.0,-342.0,162.0,-816.0,68.0,2
403,40.0,-203.0,20.0,-201.0,-415.0,-332.0,158.0,-819.0,94.0,2
404,38.0,-200.0,22.0,-138.0,-387.0,-322.0,147.0,-804.0,98.0,2
405,29.0,-192.0,16.0,-77.0,-357.0,-301.0,121.0,-800.0,78.0,2
406,26.0,-195.0,14.0,-39.0,-339.0,-276.0,114.0,-790.0,77.0,2
407,26.0,-191.0,11.0,-18.0,-334.0,-252.0,104.0,-780.0,70.0,2
408,22.0,-187.0,12.0,3.0,-340.0,-229.0,93.0,-755.0,67.0,2
409,23.0,-188.0,11.0,21.0,-341.0,-211.0,91.0,-763.0,73.0,2
410,17.0,-181.0,10.0,17.0,-336.0,-190.0,62.0,-754.0,50.0,2
411,19.0,-187.0,14.0,-5.0,-306.0,-157.0,68.0,-756.0,79.0,2
412,29.0,-192.0,13.0,-21.0,-280.0,-125.0,76.0,-766.0,126.0,2
413,20.0,-194.0,28.0,-27.0,-276.0,-97.0,77.0,-795.0,137.0,2
414,18.0,-198.0,33.0,-31.0,-278.0,-66.0,82.0,-810.0,163.0,2
415,20.0,-207.0,46.0,-21.0,-274.0,-31.0,75.0,-841.0,204.0,2
416,23.0,-210.0,49.0,16.0,-276.0,12.0,92.0,-860.0,212.0,2
417,25.0,-212.0,53.0,56.0,-280.0,43.0,92.0,-877.0,212.0,2
418,24.0,-217.0,52.0,83.0,-278.0,72.0,86.0,-897.0,229.0,2
419,21.0,-223.0,52.0,108.0,-282.0,106.0,79.0,-924.0,229.0,2
420,18.0,-228.0,59.0,135.0,-296.0,134.0,66.0,-937.0,249.0,2
421,14.0,-231.0,56.0,166.0,-312.0,156.0,53.0,-952.0,255.0,2
422,10.0,-235.0,60.0,201.0,-321.0,173.0,44.0,-966.0,263.0,2
423,3.0,-237.0,58.0,239.0,-330.0,188.0,30.0,-976.0,261.0,2
424,4.0,-241.0,54.0,276.0,-342.0,202.0,20.0,-971.0,251.0,2
425,4.0,-237.0,45.0,311.0,-353.0,210.0,24.0,-971.0,206.0,2
426,3.0,-232.0,32.0,325.0,-367.0,220.0,16.0,-965.0,148.0,2
427,2.0,-233.0,15.0,310.0,-383.0,228.0,22.0,-955.0,98.0,2
428,4.0,-232.0,6.0,267.0,-399.0,229.0,25.0,-958.0,47.0,2
429,9.0,-233.0,-6.0,199.0,-417.0,226.0,42.0,-970.0,-2.0,2
430,11.0,-246.0,-8.0,107.0,-434.0,217.0,46.0,-1010.0,-12.0,2
431,8.0,-262.0,-1.0,19.0,-455.0,203.0,36.0,-1066.0,0.0,2
432,7.0,-279.0,1.0,-47.0,-481.0,185.0,37.0,-1120.0,36.0,2
433,7.0,-292.0,6.0,-93.0,-504.0,157.0,31.0,-1187.0,59.0,2
434,4.0,-312.0,15.0,-116.0,-517.0,115.0,19.0,-1273.0,86.0,2
435,27.0,-328.0,16.0,-121.0,-512.0,61.0,103.0,-1343.0,98.0,2
436,55.0,-335.0,34.0,-99.0,-485.0,-5.0,204.0,-1378.0,168.0,2
437,92.0,-340.0,42.0,-82.0,-442.0,-81.0,336.0,-1384.0,183.0,2
438,106.0,-337.0,28.0,-83.0,-389.0,-155.0,424.0,-1386.0,153.0,2
439,113.0,-338.0,25.0,-107.0,-336.0,-240.0,449.0,-1380.0,131.0,2
440,111.0,-340.0,24.0,-142.0,-303.0,-321.0,439.0,-1380.0,107.0,2
441,109.0,-333.0,22.0,-182.0,-301.0,-384.0,439.0,-1369.0,105.0,2
442,105.0,-336.0,19.0,-221.0,-306.0,-436.0,428.0,-1382.0,108.0,2
443,107.0,-343.0,17.0,-243.0,-294.0,-471.0,416.0,-1394.0,99.0,2
444,93.0,-344.0,12.0,-233.0,-250.0,-500.0,362.0,-1408.0,89.0,2
445,78.0,-350.0,13.0,-197.0,-188.0,-517.0,310.0,-1416.0,73.0,2
446,62.0,-350.0,4.0,-154.0,-128.0,-525.0,237.0,-1424.0,52.0,2
447,39.0,-355.0,2.0,-127.0,-81.0,-530.0,160.0,-1442.0,36.0,2
448,25.0,-357.0,7.0,-125.0,-54.0,-538.0,118.0,-1462.0,49.0,2
449,16.0,-367.0,28.0,-130.0,-62.0,-556.0,64.0,-1490.0,115.0,2
450,19.0,-377.0,40.0,-131.0,-97.0,-585.0,87.0,-1526.0,172.0,2
451,47.0,-386.0,51.0,-105.0,-120.0,-626.0,150.0,-1547.0,229.0,2
452,74.0,-387.0,46.0,-23.0,-105.0,-665.0,256.0,-1554.0,228.0,2
453,91.0,-387.0,29.0,113.0,-58.0,-696.0,355.0,-1546.0,163.0,2
454,107.0,-380.0,2.0,287.0,-1.0,-716.0,413.0,-1525.0,31.0,2
455,108.0,-369.0,-14.0,475.0,48.0,-724.0,433.0,-1461.0,-34.0,2
456,99.0,-349.0,-23.0,668.0,86.0,-723.0,388.0,-1392.0,-50.0,2
457,68.0,-317.0,-24.0,855.0,118.0,-700.0,288.0,-1291.0,-71.0,2
458,51.0,-289.0,-28.0,1009.0,152.0,-651.0,179.0,-1161.0,-94.0,2
459,26.0,-252.0,-47.0,1100.0,173.0,-578.0,102.0,-1037.0,-139.0,2
460,11.0,-228.0,-68.0,1111.0,177.0,-486.0,58.0,-946.0,-228.0,2
461,4.0,-210.0,-89.0,1049.0,174.0,-393.0,32.0,-878.0,-330.0,2
462,-1.0,-202.0,-114.0,933.0,167.0,-310.0,9.0,-846.0,-417.0,2
463,-8.0,-204.0,-126.0,795.0,159.0,-254.0,-15.0,-849.0,-486.0,2
464,-9.0,-210.0,-137.0,654.0,153.0,-215.0,-15.0,-869.0,-535.0,2
465,-4.0,-220.0,-139.0,524.0,143.0,-200.0,-9.0,-914.0,-558.0,2
466,-9.0,-230.0,-136.0,416.0,134.0,-202.0,-8.0,-946.0,-527.0,2
467,-10.0,-247.0,-115.0,326.0,118.0,-216.0,-22.0,-992.0,-473.0,2
468,-11.0,-249.0,-106.0,245.0,99.0,-228.0,-20.0,-1028.0,-404.0,2
469,2.0,-263.0,-89.0,170.0,86.0,-233.0,13.0,-1074.0,-347.0,2
470,16.0,-277.0,-73.0,98.0,92.0,-228.0,53.0,-1121.0,-286.0,2
471,20.0,-288.0,-55.0,34.0,124.0,-213.0,78.0,-1170.0,-220.0,2
472,14.0,-305.0,-36.0,-14.0,176.0,-190.0,80.0,-1209.0,-134.0,2
473,10.0,-303.0,-23.0,-43.0,226.0,-162.0,48.0,-1245.0,-67.0,2
474,4.0,-316.0,-4.0,-46.0,257.0,-128.0,17.0,-1274.0,7.0,2
475,-6.0,-313.0,0.0,-22.0,267.0,-82.0,-5.0,-1285.0,8.0,2
476,-8.0,-310.0,-6.0,10.0,270.0,-23.0,-31.0,-1256.0,5.0,2
477,-8.0,-316.0,-36.0,56.0,281.0,47.0,-54.0,-1255.0,-24.0,2
478,-20.0,-309.0,-15.0,104.0,302.0,119.0,-77.0,-1240.0,-55.0,2
479,-25.0,-302.0,-26.0,155.0,325.0,187.0,-92.0,-1221.0,-78.0,2
480,-23.0,-293.0,-31.0,197.0,336.0,247.0,-94.0,-1195.0,-101.0,2
481,-23.0,-284.0,-41.0,211.0,336.0,301.0,-87.0,-1166.0,-122.0,2
482,-18.0,-278.0,-36.0,205.0,335.0,353.0,-70.0,-1138.0,-115.0,2
483,-12.0,-273.0,-23.0,199.0,342.0,399.0,-42.0,-1103.0,-63.0,2
484,0.0,-263.0,-31.0,221.0,360.0,437.0,0.0,-1093.0,-93.0,2
485,2.0,-261.0,-29.0,204.0,387.0,460.0,20.0,-1073.0,-89.0,2
486,7.0,-254.0,-21.0,166.0,420.0,488.0,28.0,-1041.0,-67.0,2
487,8.0,-243.0,-9.0,155.0,459.0,523.0,41.0,-1002.0,-38.0,2
488,13.0,-235.0,-21.0,175.0,500.0,559.0,56.0,-980.0,-59.0,2
489,22.0,-232.0,-22.0,176.0,541.0,588.0,87.0,-943.0,-58.0,2
490,30.0,-221.0,-26.0,180.0,576.0,609.0,109.0,-908.0,-81.0,2
491,39.0,-214.0,-31.0,177.0,613.0,621.0,145.0,-871.0,-97.0,2
492,45.0,-202.0,-33.0,177.0,638.0,628.0,175.0,-831.0,-92.0,2
493,46.0,-199.0,-41.0,173.0,652.0,626.0,181.0,-826.0,-131.0,2
494,54.0,-194.0,-44.0,131.0,667.0,614.0,201.0,-789.0,-131.0,2
495,53.0,-184.0,-38.0,89.0,689.0,593.0,208.0,-758.0,-120.0,2
496,47.0,-178.0,-30.0,53.0,710.0,572.0,185.0,-729.0,-99.0,2
497,42.0,-176.0,-23.0,36.0,733.0,562.0,158.0,-710.0,-84.0,2
498,27.0,-172.0,-21.0,29.0,764.0,557.0,99.0,-701.0,-73.0,2
499,15.0,-169.0,-18.0,27.0,800.0,555.0,59.0,-695.0,-52.0,2
500,1.0,-170.0,-22.0,37.0,817.0,560.0,12.0,-700.0,-65.0,2
501,-9.0,-175.0,-18.0,47.0,815.0,566.0,-30.0,-709.0,-51.0,2
502,-21.0,-172.0,-19.0,78.0,809.0,570.0,-78.0,-705.0,-67.0,2
503,-27.0,-167.0,-28.0,97.0,783.0,574.0,-100.0,-697.0,-96.0,2
504,-33.0,-163.0,-30.0,76.0,742.0,573.0,-108.0,-681.0,-98.0,2
505,-30.0,-163.0,-19.0,38.0,716.0,570.0,-110.0,-669.0,-80.0,2
506,-35.0,-161.0,-19.0,11.0,717.0,569.0,-123.0,-660.0,-75.0,2
507,-40.0,-163.0,-17.0,-14.0,718.0,565.0,-149.0,-657.0,-68.0,2
508,-41.0,-164.0,-23.0,-53.0,708.0,558.0,-167.0,-684.0,-73.0,2
509,-44.0,-165.0,-18.0,-109.0,686.0,544.0,-164.0,-686.0,-53.0,2
510,-44.0,-170.0,-19.0,-165.0,665.0,519.0,-168.0,-706.0,-56.0,2
511,-41.0,-179.0,0.0,-230.0,638.0,484.0,-153.0,-726.0,-10.0,2
512,-42.0,-183.0,10.0,-258.0,596.0,445.0,-152.0,-742.0,52.0,2
513,-40.0,-188.0,14.0,-248.0,538.0,398.0,-145.0,-768.0,63.0,2
514,-28.0,-189.0,7.0,-244.0,494.0,364.0,-120.0,-774.0,51.0,2
515,-26.0,-199.0,7.0,-252.0,475.0,329.0,-90.0,-814.0,54.0,2
516,-27.0,-203.0,17.0,-276.0,445.0,274.0,-98.0,-840.0,66.0,2
517,-22.0,-203.0,12.0,-293.0,412.0,232.0,-94.0,-836.0,67.0,2
518,-20.0,-206.0,14.0,-298.0,390.0,208.0,-87.0,-846.0,82.0,2
519,-24.0,-209.0,19.0,-292.0,372.0,191.0,-92.0,-849.0,102.0,2
520,-23.0,-212.0,25.0,-267.0,353.0,175.0,-93.0,-862.0,120.0,2
521,-24.0,-209.0,25.0,-228.0,338.0,161.0,-98.0,-862.0,133.0,2
522,-26.0,-211.0,30.0,-190.0,326.0,145.0,-101.0,-864.0,143.0,2
523,-28.0,-209.0,31.0,-159.0,309.0,126.0,-97.0,-859.0,154.0,2
524,-30.0,-211.0,41.0,-131.0,290.0,109.0,-103.0,-851.0,173.0,2
525,-27.0,-210.0,45.0,-96.0,272.0,94.0,-104.0,-853.0,188.0,2
526,-26.0,-210.0,41.0,-57.0,261.0,76.0,-103.0,-850.0,191.0,2
527,-27.0,-207.0,43.0,-19.0,246.0,54.0,-103.0,-855.0,192.0,2
528,-25.0,-207.0,41.0,13.0,231.0,35.0,-100.0,-846.0,193.0,2
529,-23.0,-208.0,43.0,38.0,223.0,12.0,-93.0,-849.0,175.0,2
530,-20.0,-204.0,39.0,60.0,216.0,-17.0,-82.0,-839.0,176.0,2
531,-11.0,-208.0,51.0,74.0,212.0,-50.0,-69.0,-836.0,151.0,2
532,-17.0,-204.0,30.0,80.0,216.0,-85.0,-55.0,-838.0,147.0,2
533,-10.0,-205.0,29.0,73.0,225.0,-118.0,-34.0,-847.0,141.0,2
534,-4.0,-207.0,33.0,58.0,237.0,-149.0,-23.0,-859.0,147.0,2
535,1.0,-211.0,32.0,42.0,253.0,-176.0,-15.0,-880.0,152.0,2
536,2.0,-223.0,35.0,29.0,269.0,-201.0,4.0,-898.0,170.0,2
537,5.0,-226.0,38.0,22.0,287.0,-222.0,13.0,-927.0,174.0,2
538,4.0,-229.0,41.0,18.0,310.0,-237.0,16.0,-940.0,192.0,2
539,4.0,-232.0,38.0,15.0,337.0,-248.0,18.0,-950.0,168.0,2
540,5.0,-235.0,35.0,8.0,368.0,-255.0,19.0,-963.0,147.0,2
541,6.0,-236.0,21.0,-10.0,402.0,-255.0,29.0,-980.0,116.0,2
542,11.0,-244.0,17.0,-37.0,434.0,-250.0,31.0,-992.0,87.0,2
543,9.0,-249.0,9.0,-71.0,461.0,-243.0,52.0,-1029.0,51.0,2
544,11.0,-257.0,4.0,-114.0,479.0,-234.0,50.0,-1066.0,34.0,2
545,10.0,-270.0,0.0,-159.0,495.0,-227.0,43.0,-1107.0,21.0,2
546,1.0,-282.0,-4.0,-201.0,509.0,-222.0,12.0,-1149.0,4.0,2
547,-12.0,-290.0,-12.0,-236.0,507.0,-212.0,-36.0,-1187.0,-21.0,2
548,-25.0,-306.0,-7.0,-270.0,493.0,-185.0,-99.0,-1245.0,-23.0,2
549,-50.0,-318.0,1.0,-298.0,473.0,-142.0,-189.0,-1301.0,12.0,2
550,-73.0,-329.0,13.0,-316.0,449.0,-80.0,-285.0,-1345.0,57.0,2
551,-95.0,-338.0,26.0,-327.0,418.0,0.0,-376.0,-1378.0,105.0,2
552,-104.0,-347.0,36.0,-331.0,388.0,86.0,-437.0,-1406.0,161.0,2
553,-119.0,-351.0,56.0,-327.0,361.0,168.0,-472.0,-1423.0,236.0,2
554,-123.0,-349.0,72.0,-296.0,339.0,234.0,-493.0,-1413.0,304.0,2
555,-125.0,-339.0,78.0,-237.0,321.0,279.0,-490.0,-1384.0,331.0,2
556,-121.0,-326.0,83.0,-173.0,286.0,298.0,-479.0,-1348.0,353.0,2
557,-109.0,-321.0,87.0,-109.0,242.0,296.0,-434.0,-1303.0,376.0,2
558,-94.0,-308.0,86.0,-54.0,204.0,284.0,-374.0,-1268.0,383.0,2
559,-89.0,-299.0,79.0,-7.0,182.0,267.0,-346.0,-1236.0,352.0,2
560,-52.0,-306.0,67.0,-4.0,158.0,267.0,-226.0,-1241.0,314.0,2
561,-36.0,-308.0,53.0,-48.0,153.0,259.0,-153.0,-1270.0,237.0,2
562,-33.0,-319.0,50.0,-141.0,188.0,273.0,-122.0,-1332.0,210.0,2
563,-31.0,-335.0,50.0,-233.0,240.0,298.0,-110.0,-1395.0,218.0,2
564,-29.0,-352.0,54.0,-291.0,274.0,333.0,-124.0,-1444.0,232.0,2
565,-40.0,-368.0,53.0,-305.0,289.0,369.0,-147.0,-1485.0,228.0,2
566,-43.0,-379.0,43.0,-267.0,290.0,395.0,-174.0,-1518.0,211.0,2
567,-56.0,-378.0,30.0,-186.0,278.0,415.0,-208.0,-1527.0,162.0,2
568,-60.0,-376.0,19.0,-74.0,254.0,427.0,-241.0,-1512.0,103.0,2
569,-68.0,-364.0,13.0,47.0,218.0,419.0,-261.0,-1461.0,73.0,2
570,-64.0,-343.0,4.0,171.0,177.0,400.0,-264.0,-1395.0,42.0,2
571,-66.0,-320.0,-5.0,285.0,145.0,367.0,-245.0,-1305.0,16.0,2
572,-65.0,-303.0,-9.0,382.0,122.0,329.0,-248.0,-1225.0,-27.0,2
573,-64.0,-284.0,-25.0,445.0,99.0,289.0,-248.0,-1161.0,-87.0,2
574,-67.0,-272.0,-45.0,467.0,74.0,249.0,-245.0,-1117.0,-158.0,2
575,-67.0,-266.0,-64.0,448.0,39.0,211.0,-263.0,-1097.0,-223.0,2
576,-76.0,-268.0,-78.0,414.0,-6.0,188.0,-277.0,-1104.0,-274.0,2
577,-79.0,-272.0,-83.0,377.0,-67.0,181.0,-299.0,-1110.0,-326.0,2
578,-79.0,-272.0,-97.0,350.0,-134.0,194.0,-283.0,-1121.0,-360.0,2
579,-71.0,-276.0,-100.0,340.0,-196.0,219.0,-265.0,-1135.0,-387.0,2
580,-61.0,-274.0,-104.0,345.0,-241.0,247.0,-235.0,-1128.0,-394.0,2
581,-47.0,-272.0,-108.0,360.0,-270.0,277.0,-190.0,-1118.0,-407.0,2
582,-38.0,-268.0,-102.0,377.0,-291.0,306.0,-133.0,-1101.0,-401.0,2
583,-15.0,-266.0,-101.0,390.0,-303.0,334.0,-67.0,-1086.0,-383.0,2
584,-1.0,-265.0,-96.0,397.0,-307.0,362.0,22.0,-1092.0,-368.0,2
585,19.0,-266.0,-88.0,392.0,-303.0,382.0,79.0,-1104.0,-333.0,2
586,36.0,-276.0,-84.0,383.0,-288.0,392.0,135.0,-1110.0,-301.0,2
587,35.0,-281.0,-67.0,379.0,-267.0,379.0,176.0,-1122.0,-259.0,2
588,38.0,-276.0,-58.0,403.0,-241.0,339.0,192.0,-1117.0,-218.0,2
589,45.0,-270.0,-60.0,439.0,-225.0,279.0,180.0,-1093.0,-200.0,2
590,39.0,-257.0,-58.0,459.0,-227.0,209.0,154.0,-1059.0,-204.0,2
591,29.0,-244.0,-65.0,449.0,-254.0,134.0,137.0,-1012.0,-236.0,2
592,20.0,-236.0,-73.0,397.0,-286.0,67.0,90.0,-980.0,-277.0,2
593,12.0,-235.0,-80.0,313.0,-313.0,11.0,44.0,-966.0,-297.0,2
594,-9.0,-239.0,-78.0,215.0,-323.0,-36.0,-18.0,-976.0,-280.0,2
595,-20.0,-246.0,-65.0,119.0,-331.0,-76.0,-63.0,-1015.0,-250.0,2
596,-21.0,-261.0,-56.0,42.0,-355.0,-117.0,-69.0,-1065.0,-192.0,2
597,-16.0,-269.0,-42.0,-4.0,-392.0,-157.0,-52.0,-1115.0,-122.0,2
598,-2.0,-282.0,-24.0,-17.0,-436.0,-201.0,-11.0,-1147.0,-73.0,2
599,9.0,-288.0,-14.0,-18.0,-472.0,-251.0,41.0,-1177.0,-25.0,2
600,15.0,-292.0,-2.0,-6.0,-490.0,-306.0,59.0,-1185.0,14.0,2
601,15.0,-296.0,-1.0,16.0,-496.0,-369.0,71.0,-1194.0,15.0,2
602,16.0,-295.0,-5.0,39.0,-500.0,-435.0,68.0,-1198.0,6.0,2
603,11.0,-294.0,-10.0,74.0,-514.0,-508.0,62.0,-1192.0,-27.0,2
604,6.0,-290.0,-17.0,132.0,-532.0,-579.0,51.0,-1160.0,-39.0,2
605,1.0,-277.0,-23.0,226.0,-550.0,-641.0,23.0,-1122.0,-67.0,2
606,0.0,-266.0,-26.0,328.0,-570.0,-680.0,5.0,-1082.0,-86.0,2
607,0.0,-255.0,-38.0,405.0,-586.0,-702.0,-9.0,-1030.0,-110.0,2
608,-7.0,-237.0,-41.0,439.0,-588.0,-711.0,-21.0,-992.0,-137.0,2
609,-6.0,-230.0,-44.0,417.0,-584.0,-706.0,-26.0,-952.0,-154.0,2
610,-10.0,-222.0,-37.0,343.0,-568.0,-704.0,-37.0,-923.0,-126.0,2
611,-20.0,-216.0,-20.0,268.0,-544.0,-706.0,-65.0,-892.0,-68.0,2
612,-30.0,-205.0,-19.0,243.0,-536.0,-702.0,-101.0,-842.0,-60.0,2
613,-30.0,-196.0,-14.0,241.0,-537.0,-689.0,-99.0,-806.0,-38.0,2
614,-29.0,-190.0,-7.0,260.0,-543.0,-673.0,-107.0,-761.0,-14.0,2
615,-25.0,-180.0,1.0,301.0,-566.0,-655.0,-92.0,-728.0,12.0,2
616,-18.0,-172.0,-9.0,351.0,-605.0,-640.0,-75.0,-709.0,-11.0,2
617,-10.0,-169.0,-14.0,362.0,-638.0,-629.0,-37.0,-692.0,-27.0,2
618,-5.0,-162.0,-1.0,339.0,-665.0,-621.0,-17.0,-672.0,-10.0,2
619,1.0,-156.0,-5.0,314.0,-686.0,-614.0,9.0,-658.0,-12.0,2
620,4.0,-157.0,-14.0,277.0,-704.0,-609.0,24.0,-646.0,-12.0,2
621,6.0,-155.0,-12.0,229.0,-723.0,-597.0,39.0,-649.0,-38.0,2
622,11.0,-158.0,-20.0,158.0,-737.0,-585.0,52.0,-655.0,-57.0,2
623,10.0,-156.0,-17.0,69.0,-751.0,-572.0,54.0,-656.0,-50.0,2
624,16.0,-162.0,-7.0,-1.0,-765.0,-552.0,62.0,-652.0,-3.0,2
625,21.0,-168.0,-1.0,-18.0,-772.0,-530.0,83.0,-669.0,18.0,2
626,24.0,-167.0,1.0,-18.0,-783.0,-518.0,96.0,-691.0,21.0,2
627,30.0,-170.0,-1.0,-23.0,-797.0,-500.0,116.0,-692.0,8.0,2
628,32.0,-165.0,-10.0,-40.0,-793.0,-484.0,124.0,-676.0,-17.0,2
629,40.0,-163.0,-2.0,-80.0,-778.0,-465.0,148.0,-656.0,7.0,2
630,38.0,-172.0,-3.0,-118.0,-772.0,-450.0,149.0,-709.0,7.0,2
631,39.0,-176.0,-18.0,-158.0,-767.0,-444.0,142.0,-734.0,-43.0,2
632,37.0,-182.0,1.0,-234.0,-733.0,-415.0,137.0,-734.0,30.0,2
633,33.0,-188.0,3.0,-262.0,-666.0,-360.0,122.0,-783.0,40.0,2
634,34.0,-199.0,19.0,-268.0,-611.0,-311.0,136.0,-818.0,88.0,2
635,34.0,-208.0,23.0,-243.0,-593.0,-285.0,119.0,-832.0,113.0,2
636,31.0,-209.0,27.0,-200.0,-586.0,-265.0,109.0,-838.0,132.0,2
637,29.0,-204.0,28.0,-155.0,-575.0,-236.0,108.0,-842.0,136.0,2
638,26.0,-204.0,32.0,-110.0,-560.0,-200.0,105.0,-831.0,134.0,2
639,27.0,-203.0,28.0,-71.0,-545.0,-171.0,107.0,-817.0,131.0,2
640,29.0,-200.0,24.0,-38.0,-526.0,-139.0,117.0,-810.0,121.0,2
641,34.0,-198.0,29.0,-22.0,-508.0,-102.0,118.0,-811.0,122.0,2
642,33.0,-198.0,33.0,-12.0,-494.0,-67.0,125.0,-803.0,148.0,2
643,34.0,-196.0,38.0,21.0,-484.0,-33.0,134.0,-798.0,174.0,2
644,40.0,-190.0,31.0,71.0,-474.0,3.0,152.0,-793.0,152.0,2
645,37.0,-193.0,31.0,77.0,-466.0,36.0,157.0,-786.0,168.0,2
646,39.0,-188.0,39.0,59.0,-466.0,65.0,147.0,-774.0,182.0,2
647,40.0,-187.0,45.0,37.0,-469.0,92.0,151.0,-769.0,194.0,2
648,37.0,-190.0,49.0,15.0,-469.0,115.0,143.0,-778.0,200.0,2
649,39.0,-196.0,48.0,-10.0,-468.0,134.0,140.0,-794.0,214.0,2
650,34.0,-198.0,55.0,-33.0,-463.0,155.0,121.0,-815.0,230.0,2
651,27.0,-203.0,56.0,-44.0,-458.0,179.0,110.0,-827.0,245.0,2
652,25.0,-207.0,58.0,-46.0,-453.0,204.0,99.0,-846.0,249.0,2
653,27.0,-214.0,51.0,-42.0,-451.0,231.0,96.0,-870.0,236.0,2
654,26.0,-219.0,42.0,-40.0,-445.0,249.0,92.0,-892.0,200.0,2
655,21.0,-221.0,37.0,-46.0,-437.0,260.0,85.0,-917.0,171.0,2
656,16.0,-228.0,29.0,-57.0,-431.0,260.0,84.0,-936.0,142.0,2
657,22.0,-234.0,25.0,-58.0,-429.0,257.0,72.0,-957.0,125.0,2
658,16.0,-243.0,23.0,-53.0,-428.0,250.0,67.0,-985.0,98.0,2
659,16.0,-253.0,16.0,-56.0,-425.0,243.0,61.0,-1024.0,96.0,2
660,12.0,-260.0,18.0,-68.0,-422.0,235.0,47.0,-1065.0,91.0,2
661,-6.0,-279.0,34.0,-84.0,-419.0,221.0,-5.0,-1113.0,93.0,2
662,5.0,-290.0,16.0,-105.0,-404.0,215.0,28.0,-1178.0,87.0,2
663,11.0,-300.0,37.0,-108.0,-384.0,194.0,48.0,-1216.0,172.0,2
664,33.0,-301.0,37.0,-125.0,-379.0,166.0,114.0,-1242.0,179.0,2
665,60.0,-318.0,16.0,-147.0,-388.0,138.0,202.0,-1289.0,103.0,2
666,65.0,-325.0,6.0,-200.0,-380.0,66.0,265.0,-1331.0,49.0,2
667,70.0,-337.0,7.0,-239.0,-345.0,-30.0,267.0,-1369.0,60.0,2
668,74.0,-343.0,18.0,-251.0,-303.0,-128.0,290.0,-1400.0,105.0,2
669,76.0,-345.0,36.0,-233.0,-262.0,-222.0,296.0,-1404.0,161.0,2
670,70.0,-346.0,48.0,-189.0,-222.0,-303.0,284.0,-1409.0,210.0,2
671,69.0,-352.0,64.0,-125.0,-183.0,-366.0,261.0,-1401.0,262.0,2
672,62.0,-343.0,67.0,-51.0,-149.0,-415.0,229.0,-1376.0,308.0,2
673,58.0,-335.0,76.0,32.0,-131.0,-447.0,195.0,-1356.0,348.0,2
674,43.0,-325.0,84.0,121.0,-121.0,-467.0,167.0,-1320.0,383.0,2
675,46.0,-314.0,85.0,210.0,-119.0,-479.0,164.0,-1275.0,374.0,2
676,41.0,-296.0,77.0,281.0,-120.0,-486.0,162.0,-1214.0,346.0,2
677,35.0,-284.0,70.0,306.0,-129.0,-489.0,140.0,-1169.0,299.0,2
678,36.0,-272.0,61.0,255.0,-165.0,-492.0,138.0,-1136.0,262.0,2
679,46.0,-278.0,49.0,138.0,-224.0,-505.0,171.0,-1143.0,223.0,2
680,62.0,-288.0,40.0,-14.0,-283.0,-526.0,230.0,-1187.0,180.0,2
681,76.0,-311.0,39.0,-169.0,-320.0,-555.0,294.0,-1254.0,183.0,2
682,86.0,-324.0,41.0,-285.0,-328.0,-586.0,336.0,-1335.0,197.0,2
683,108.0,-345.0,41.0,-327.0,-307.0,-621.0,394.0,-1406.0,179.0,2
684,122.0,-365.0,25.0,-281.0,-256.0,-650.0,450.0,-1455.0,131.0,2
685,128.0,-369.0,10.0,-168.0,-171.0,-668.0,498.0,-1484.0,70.0,2
686,129.0,-368.0,-4.0,-13.0,-65.0,-671.0,508.0,-1483.0,19.0,2
687,122.0,-357.0,-11.0,156.0,47.0,-656.0,475.0,-1432.0,-22.0,2
688,104.0,-335.0,-21.0,323.0,151.0,-628.0,425.0,-1370.0,-53.0,2
689,78.0,-315.0,-30.0,475.0,224.0,-594.0,332.0,-1286.0,-101.0,2
690,58.0,-294.0,-47.0,600.0,269.0,-544.0,230.0,-1177.0,-159.0,2
691,40.0,-272.0,-67.0,701.0,289.0,-494.0,159.0,-1105.0,-235.0,2
692,20.0,-261.0,-86.0,776.0,297.0,-440.0,96.0,-1051.0,-325.0,2
693,5.0,-249.0,-102.0,823.0,301.0,-382.0,34.0,-1026.0,-396.0,2
694,-11.0,-246.0,-113.0,836.0,306.0,-325.0,-33.0,-1014.0,-431.0,2
695,-20.0,-250.0,-124.0,818.0,308.0,-281.0,-56.0,-1025.0,-461.0,2
696,-10.0,-258.0,-123.0,765.0,306.0,-251.0,-28.0,-1057.0,-473.0,2
697,0.0,-261.0,-122.0,684.0,310.0,-236.0,6.0,-1088.0,-461.0,2
698,3.0,-271.0,-110.0,581.0,329.0,-246.0,36.0,-1124.0,-418.0,2
699,17.0,-286.0,-97.0,468.0,348.0,-271.0,82.0,-1169.0,-360.0,2
700,29.0,-300.0,-84.0,372.0,368.0,-294.0,119.0,-1220.0,-317.0,2
701,34.0,-313.0,-68.0,304.0,395.0,-299.0,127.0,-1271.0,-259.0,2
702,31.0,-321.0,-61.0,266.0,436.0,-289.0,131.0,-1302.0,-200.0,2
703,34.0,-324.0,-47.0,271.0,483.0,-263.0,140.0,-1326.0,-149.0,2
704,31.0,-329.0,-38.0,310.0,530.0,-222.0,142.0,-1339.0,-118.0,2
705,35.0,-325.0,-34.0,371.0,578.0,-169.0,139.0,-1326.0,-104.0,2
706,37.0,-318.0,-38.0,429.0,626.0,-107.0,132.0,-1302.0,-109.0,2
707,28.0,-311.0,-35.0,461.0,671.0,-44.0,122.0,-1270.0,-122.0,2
708,32.0,-300.0,-36.0,465.0,709.0,18.0,136.0,-1224.0,-117.0,2
709,41.0,-288.0,-40.0,455.0,734.0,73.0,156.0,-1191.0,-119.0,2
710,48.0,-288.0,-38.0,439.0,760.0,114.0,176.0,-1173.0,-130.0,2
711,46.0,-283.0,-36.0,413.0,795.0,146.0,175.0,-1155.0,-121.0,2
712,43.0,-282.0,-38.0,370.0,831.0,171.0,167.0,-1162.0,-114.0,2
713,35.0,-285.0,-23.0,310.0,851.0,198.0,138.0,-1166.0,-82.0,2
714,25.0,-287.0,-22.0,275.0,861.0,236.0,105.0,-1161.0,-33.0,2
715,17.0,-283.0,-20.0,274.0,865.0,281.0,66.0,-1150.0,-47.0,2
716,11.0,-278.0,-18.0,271.0,877.0,330.0,59.0,-1133.0,-57.0,2
717,11.0,-270.0,-21.0,273.0,904.0,383.0,42.0,-1103.0,-48.0,2
718,7.0,-261.0,-19.0,289.0,946.0,428.0,28.0,-1067.0,-63.0,2
719,1.0,-254.0,-27.0,314.0,996.0,464.0,10.0,-1029.0,-103.0,2
720,-10.0,-239.0,-49.0,319.0,1035.0,491.0,-12.0,-981.0,-149.0,2
721,-18.0,-220.0,-48.0,292.0,1047.0,513.0,-52.0,-924.0,-173.0,2
722,-19.0,-216.0,-56.0,257.0,1037.0,532.0,-55.0,-883.0,-205.0,2
723,-21.0,-200.0,-45.0,206.0,1008.0,539.0,-60.0,-828.0,-159.0,2
724,-6.0,-195.0,-43.0,174.0,969.0,540.0,-14.0,-815.0,-155.0,2
725,-7.0,-193.0,-42.0,114.0,934.0,519.0,-11.0,-796.0,-133.0,2
726,-1.0,-190.0,-37.0,13.0,913.0,506.0,5.0,-800.0,-120.0,2
727,0.0,-189.0,-17.0,-119.0,900.0,493.0,6.0,-796.0,-48.0,2
728,2.0,-193.0,-2.0,-216.0,890.0,478.0,10.0,-798.0,8.0,2
729,4.0,-195.0,4.0,-276.0,882.0,463.0,26.0,-803.0,36.0,2
730,4.0,-197.0,6.0,-306.0,878.0,459.0,28.0,-811.0,48.0,2
731,5.0,-203.0,3.0,-315.0,883.0,460.0,31.0,-825.0,30.0,2
732,7.0,-206.0,9.0,-305.0,888.0,467.0,35.0,-841.0,32.0,2
733,11.0,-208.0,-10.0,-273.0,899.0,480.0,52.0,-847.0,-16.0,2
734,19.0,-207.0,-11.0,-261.0,904.0,490.0,72.0,-844.0,-15.0,2
735,21.0,-202.0,-5.0,-241.0,913.0,497.0,80.0,-837.0,-2.0,2
736,18.0,-202.0,-2.0,-192.0,931.0,505.0,76.0,-820.0,2.0,2
737,18.0,-199.0,-12.0,-135.0,946.0,509.0,80.0,-827.0,-34.0,2
738,17.0,-196.0,-9.0,-124.0,954.0,506.0,76.0,-805.0,-32.0,2
739,24.0,-196.0,-10.0,-131.0,954.0,503.0,90.0,-795.0,-18.0,2
740,27.0,-194.0,-8.0,-131.0,956.0,493.0,96.0,-786.0,0.0,2
741,28.0,-189.0,-7.0,-116.0,978.0,480.0,103.0,-772.0,-7.0,2
742,24.0,-189.0,-4.0,-100.0,1015.0,468.0,91.0,-766.0,-9.0,2
743,18.0,-189.0,5.0,-84.0,1051.0,447.0,77.0,-763.0,31.0,2
744,7.0,-175.0,-1.0,-38.0,1061.0,412.0,35.0,-726.0,25.0,2
745,4.0,-173.0,-8.0,-5.0,1060.0,386.0,25.0,-712.0,0.0,2
746,-8.0,-171.0,-6.0,-8.0,1062.0,353.0,11.0,-713.0,-15.0,2
747,3.0,-167.0,-9.0,-44.0,1053.0,312.0,-11.0,-703.0,-17.0,2
748,-10.0,-167.0,-6.0,-105.0,1037.0,273.0,-27.0,-701.0,-15.0,2
749,-15.0,-171.0,-6.0,-176.0,1022.0,238.0,-47.0,-710.0,-13.0,2
750,-17.0,-177.0,1.0,-249.0,1005.0,206.0,-66.0,-725.0,17.0,2
751,-22.0,-184.0,6.0,-299.0,988.0,173.0,-80.0,-736.0,46.0,2
752,-21.0,-189.0,7.0,-315.0,972.0,149.0,-82.0,-764.0,55.0,2
753,-22.0,-192.0,13.0,-309.0,962.0,129.0,-90.0,-791.0,78.0,2
754,-24.0,-200.0,20.0,-299.0,957.0,110.0,-94.0,-819.0,94.0,2
755,-27.0,-205.0,20.0,-289.0,949.0,87.0,-105.0,-845.0,99.0,2
756,-27.0,-210.0,30.0,-281.0,940.0,64.0,-120.0,-862.0,137.0,2
757,-33.0,-213.0,32.0,-252.0,936.0,42.0,-123.0,-878.0,155.0,2
758,-31.0,-218.0,31.0,-207.0,932.0,17.0,-131.0,-892.0,155.0,2
759,-31.0,-219.0,28.0,-156.0,926.0,-8.0,-131.0,-911.0,133.0,2
760,-31.0,-219.0,29.0,-122.0,921.0,-36.0,-127.0,-910.0,127.0,2
761,-34.0,-221.0,24.0,-101.0,918.0,-66.0,-136.0,-911.0,123.0,2
762,-36.0,-223.0,22.0,-93.0,910.0,-94.0,-139.0,-916.0,113.0,2
763,-38.0,-225.0,27.0,-91.0,894.0,-121.0,-142.0,-924.0,119.0,2
764,-37.0,-226.0,32.0,-88.0,870.0,-142.0,-143.0,-932.0,139.0,2
765,-37.0,-228.0,36.0,-78.0,847.0,-159.0,-138.0,-935.0,159.0,2
766,-33.0,-232.0,42.0,-63.0,832.0,-169.0,-127.0,-943.0,182.0,2
767,-31.0,-231.0,51.0,-46.0,830.0,-174.0,-120.0,-945.0,209.0,2
768,-28.0,-233.0,50.0,-27.0,837.0,-169.0,-111.0,-947.0,224.0,2
769,-29.0,-228.0,50.0,-22.0,844.0,-169.0,-106.0,-951.0,225.0,2
770,-27.0,-233.0,41.0,-27.0,850.0,-164.0,-106.0,-958.0,206.0,2
771,-30.0,-230.0,40.0,-56.0,853.0,-162.0,-102.0,-963.0,140.0,2
772,-34.0,-230.0,41.0,-103.0,851.0,-164.0,-132.0,-954.0,180.0,2
773,-35.0,-237.0,23.0,-106.0,836.0,-154.0,-136.0,-965.0,114.0,2
774,-37.0,-238.0,14.0,-131.0,821.0,-154.0,-134.0,-983.0,83.0,2
775,-40.0,-244.0,12.0,-178.0,811.0,-157.0,-143.0,-1001.0,68.0,2
776,-48.0,-255.0,15.0,-232.0,801.0,-163.0,-181.0,-1044.0,69.0,2
777,-55.0,-264.0,18.0,-280.0,785.0,-166.0,-212.0,-1086.0,77.0,2
778,-63.0,-270.0,14.0,-321.0,754.0,-163.0,-244.0,-1127.0,79.0,2
779,-73.0,-284.0,12.0,-351.0,718.0,-154.0,-290.0,-1165.0,73.0,2
780,-86.0,-293.0,14.0,-367.0,680.0,-135.0,-327.0,-1192.0,61.0,2
781,-97.0,-301.0,9.0,-367.0,642.0,-103.0,-373.0,-1226.0,59.0,2
782,-101.0,-306.0,10.0,-348.0,603.0,-61.0,-403.0,-1255.0,61.0,2
783,-108.0,-314.0,15.0,-320.0,563.0,-16.0,-428.0,-1281.0,85.0,2
784,-105.0,-314.0,23.0,-282.0,520.0,28.0,-416.0,-1287.0,114.0,2
785,-101.0,-310.0,34.0,-230.0,479.0,76.0,-387.0,-1273.0,149.0,2
786,-93.0,-306.0,49.0,-166.0,449.0,115.0,-367.0,-1242.0,204.0,2
787,-83.0,-300.0,55.0,-96.0,425.0,142.0,-326.0,-1220.0,249.0,2
788,-68.0,-293.0,63.0,-31.0,405.0,153.0,-279.0,-1191.0,275.0,2
789,-52.0,-286.0,65.0,21.0,392.0,153.0,-216.0,-1162.0,296.0,2
790,-39.0,-276.0,69.0,62.0,391.0,144.0,-165.0,-1137.0,314.0,2
791,-27.0,-270.0,73.0,95.0,402.0,128.0,-126.0,-1122.0,317.0,2
792,-24.0,-266.0,66.0,119.0,423.0,112.0,-96.0,-1096.0,302.0,2
793,-12.0,-261.0,50.0,121.0,448.0,90.0,-58.0,-1083.0,226.0,2
794,-1.0,-254.0,34.0,63.0,464.0,70.0,-4.0,-1069.0,179.0,2
795,5.0,-261.0,27.0,-50.0,501.0,58.0,23.0,-1082.0,131.0,2
796,3.0,-272.0,26.0,-191.0,555.0,54.0,19.0,-1124.0,122.0,2
797,-3.0,-292.0,22.0,-316.0,606.0,53.0,-24.0,-1206.0,113.0,2
798,-15.0,-313.0,20.0,-406.0,633.0,62.0,-67.0,-1289.0,110.0,2
799,-26.0,-331.0,18.0,-462.0,633.0,77.0,-96.0,-1355.0,90.0,2
800,-36.0,-346.0,16.0,-479.0,617.0,100.0,-138.0,-1407.0,84.0,2
801,-52.0,-359.0,13.0,-440.0,586.0,134.0,-200.0,-1450.0,85.0,2
802,-68.0,-362.0,12.0,-339.0,532.0,174.0,-274.0,-1453.0,66.0,2
803,-87.0,-350.0,-1.0,-191.0,460.0,215.0,-329.0,-1418.0,18.0,2
804,-98.0,-333.0,-23.0,-38.0,383.0,254.0,-384.0,-1354.0,-59.0,2
805,-110.0,-312.0,-50.0,80.0,325.0,298.0,-420.0,-1281.0,-173.0,2
806,-112.0,-298.0,-70.0,136.0,277.0,342.0,-423.0,-1213.0,-266.0,2
807,-105.0,-286.0,-87.0,127.0,224.0,386.0,-392.0,-1177.0,-339.0,2
808,-94.0,-280.0,-94.0,73.0,163.0,426.0,-344.0,-1159.0,-359.0,2
809,-74.0,-286.0,-87.0,13.0,91.0,466.0,-276.0,-1165.0,-343.0,2
810,-47.0,-290.0,-76.0,-22.0,11.0,508.0,-169.0,-1184.0,-301.0,2
811,-20.0,-297.0,-67.0,-17.0,-57.0,528.0,-57.0,-1198.0,-242.0,2
812,7.0,-293.0,-56.0,31.0,-90.0,517.0,44.0,-1195.0,-204.0,2
813,30.0,-295.0,-60.0,97.0,-88.0,491.0,115.0,-1191.0,-195.0,2
814,43.0,-291.0,-59.0,134.0,-67.0,463.0,169.0,-1199.0,-199.0,2
815,55.0,-295.0,-55.0,128.0,-46.0,438.0,204.0,-1197.0,-207.0,2
816,63.0,-301.0,-55.0,92.0,-29.0,426.0,246.0,-1214.0,-187.0,2
817,71.0,-309.0,-41.0,68.0,-12.0,430.0,282.0,-1255.0,-131.0,2
818,82.0,-322.0,-32.0,99.0,22.0,434.0,324.0,-1296.0,-90.0,2
819,91.0,-326.0,-31.0,198.0,79.0,430.0,365.0,-1312.0,-86.0,2
820,99.0,-321.0,-37.0,345.0,142.0,412.0,387.0,-1288.0,-122.0,2
821,99.0,-315.0,-51.0,513.0,185.0,379.0,378.0,-1246.0,-196.0,2
822,87.0,-300.0,-70.0,647.0,205.0,342.0,355.0,-1195.0,-265.0,2
823,80.0,-289.0,-84.0,715.0,202.0,297.0,329.0,-1164.0,-327.0,2
824,75.0,-273.0,-92.0,723.0,187.0,240.0,312.0,-1127.0,-354.0,2
825,70.0,-272.0,-87.0,688.0,176.0,180.0,291.0,-1113.0,-332.0,2
826,65.0,-269.0,-75.0,623.0,184.0,120.0,256.0,-1115.0,-253.0,2
827,54.0,-275.0,-49.0,558.0,204.0,58.0,213.0,-1119.0,-159.0,2
828,47.0,-275.0,-31.0,523.0,222.0,-6.0,181.0,-1128.0,-89.0,2
829,39.0,-277.0,-19.0,519.0,225.0,-72.0,158.0,-1130.0,-41.0,2
830,32.0,-281.0,-12.0,533.0,213.0,-134.0,138.0,-1145.0,-36.0,2
831,24.0,-279.0,-10.0,527.0,184.0,-190.0,101.0,-1134.0,-22.0,2
832,15.0,-277.0,-8.0,521.0,142.0,-239.0,67.0,-1122.0,-1.0,2
833,3.0,-268.0,-8.0,540.0,92.0,-279.0,46.0,-1111.0,-21.0,2
834,7.0,-267.0,-11.0,575.0,45.0,-329.0,39.0,-1087.0,-25.0,2
835,1.0,-256.0,-14.0,635.0,5.0,-386.0,17.0,-1043.0,-30.0,2
836,-1.0,-247.0,-24.0,698.0,-49.0,-440.0,1.0,-1002.0,-67.0,2
837,-3.0,-228.0,-24.0,720.0,-102.0,-481.0,-6.0,-947.0,-74.0,2
838,0.0,-216.0,-25.0,707.0,-158.0,-517.0,-4.0,-892.0,-80.0,2
839,-8.0,-197.0,-26.0,662.0,-204.0,-554.0,-21.0,-819.0,-84.0,2
840,-19.0,-182.0,-29.0,589.0,-245.0,-582.0,-61.0,-771.0,-81.0,2
841,-25.0,-178.0,-29.0,490.0,-294.0,-596.0,-75.0,-748.0,-91.0,2
842,-24.0,-176.0,-16.0,369.0,-350.0,-598.0,-95.0,-722.0,-49.0,2
843,-35.0,-170.0,-5.0,271.0,-409.0,-587.0,-122.0,-708.0,-12.0,2
844,-41.0,-169.0,-4.0,211.0,-467.0,-564.0,-148.0,-696.0,-6.0,2
845,-43.0,-164.0,-9.0,171.0,-515.0,-535.0,-152.0,-690.0,-24.0,2
846,-45.0,-165.0,-1.0,105.0,-549.0,-520.0,-172.0,-686.0,-9.0,2
847,-50.0,-166.0,-6.0,29.0,-598.0,-502.0,-197.0,-687.0,6.0,2
848,-44.0,-171.0,0.0,-43.0,-668.0,-480.0,-175.0,-710.0,24.0,2
849,-42.0,-179.0,-3.0,-104.0,-726.0,-451.0,-137.0,-743.0,1.0,2
850,-34.0,-188.0,3.0,-190.0,-796.0,-446.0,-128.0,-757.0,25.0,2
851,-26.0,-189.0,6.0,-241.0,-858.0,-445.0,-99.0,-772.0,37.0,2
852,-19.0,-189.0,5.0,-258.0,-883.0,-450.0,-60.0,-778.0,40.0,2
853,-3.0,-195.0,2.0,-245.0,-892.0,-458.0,-24.0,-789.0,42.0,2
854,5.0,-195.0,9.0,-229.0,-917.0,-457.0,25.0,-804.0,39.0,2
855,20.0,-191.0,-14.0,-223.0,-947.0,-449.0,75.0,-793.0,-22.0,2
856,30.0,-196.0,-9.0,-258.0,-932.0,-436.0,108.0,-802.0,0.0,2
857,30.0,-205.0,0.0,-287.0,-914.0,-428.0,111.0,-822.0,22.0,2
858,37.0,-205.0,2.0,-293.0,-915.0,-408.0,133.0,-825.0,27.0,2
859,43.0,-207.0,5.0,-281.0,-908.0,-383.0,155.0,-837.0,31.0,2
860,43.0,-211.0,8.0,-264.0,-895.0,-363.0,169.0,-849.0,56.0,2
861,50.0,-214.0,10.0,-251.0,-885.0,-339.0,184.0,-858.0,62.0,2
862,54.0,-210.0,10.0,-243.0,-875.0,-316.0,211.0,-861.0,69.0,2
863,61.0,-206.0,14.0,-222.0,-859.0,-298.0,226.0,-844.0,68.0,2
864,63.0,-201.0,7.0,-197.0,-837.0,-282.0,239.0,-823.0,59.0,2
865,64.0,-197.0,8.0,-185.0,-814.0,-270.0,246.0,-804.0,49.0,2
866,62.0,-194.0,1.0,-192.0,-791.0,-257.0,251.0,-794.0,47.0,2
867,65.0,-192.0,10.0,-207.0,-768.0,-243.0,248.0,-778.0,46.0,2
868,63.0,-188.0,8.0,-225.0,-746.0,-227.0,237.0,-765.0,57.0,2
869,59.0,-191.0,13.0,-243.0,-729.0,-210.0,224.0,-775.0,72.0,2
870,50.0,-188.0,41.0,-254.0,-714.0,-194.0,213.0,-789.0,88.0,2
871,56.0,-196.0,24.0,-258.0,-700.0,-177.0,212.0,-798.0,104.0,2
872,53.0,-201.0,19.0,-262.0,-685.0,-161.0,193.0,-821.0,103.0,2
873,40.0,-204.0,32.0,-262.0,-668.0,-138.0,155.0,-836.0,143.0,2
874,36.0,-216.0,35.0,-247.0,-667.0,-106.0,148.0,-879.0,163.0,2
875,31.0,-222.0,40.0,-218.0,-670.0,-79.0,119.0,-904.0,182.0,2
876,26.0,-231.0,42.0,-175.0,-669.0,-52.0,96.0,-933.0,198.0,2
877,20.0,-235.0,46.0,-125.0,-666.0,-31.0,79.0,-960.0,206.0,2
878,14.0,-247.0,53.0,-70.0,-666.0,-8.0,49.0,-965.0,229.0,2
879,10.0,-237.0,51.0,-16.0,-668.0,13.0,34.0,-969.0,227.0,2
880,1.0,-234.0,54.0,34.0,-671.0,35.0,13.0,-959.0,231.0,2
881,0.0,-232.0,51.0,77.0,-675.0,57.0,-5.0,-944.0,229.0,2
882,0.0,-223.0,50.0,112.0,-682.0,80.0,-15.0,-921.0,224.0,2
883,2.0,-224.0,52.0,138.0,-690.0,103.0,-22.0,-901.0,212.0,2
884,-12.0,-217.0,46.0,151.0,-699.0,126.0,-42.0,-880.0,215.0,2
885,-12.0,-209.0,48.0,147.0,-714.0,150.0,-41.0,-862.0,210.0,2
886,-9.0,-206.0,49.0,127.0,-736.0,169.0,-54.0,-855.0,206.0,2
887,-8.0,-212.0,43.0,95.0,-757.0,183.0,-47.0,-851.0,202.0,2
888,-9.0,-207.0,40.0,53.0,-774.0,190.0,-27.0,-853.0,194.0,2
889,0.0,-210.0,36.0,5.0,-783.0,196.0,-10.0,-874.0,168.0,2
890,3.0,-211.0,29.0,-48.0,-787.0,191.0,13.0,-882.0,139.0,2
891,8.0,-217.0,20.0,-105.0,-786.0,184.0,48.0,-916.0,116.0,2
892,16.0,-226.0,16.0,-159.0,-780.0,174.0,80.0,-949.0,99.0,2
893,26.0,-238.0,16.0,-206.0,-773.0,163.0,106.0,-974.0,90.0,2
894,31.0,-244.0,13.0,-236.0,-764.0,152.0,129.0,-1010.0,74.0,2
895,39.0,-255.0,11.0,-258.0,-754.0,139.0,153.0,-1042.0,68.0,2
896,47.0,-270.0,5.0,-278.0,-738.0,125.0,164.0,-1088.0,49.0,2
897,43.0,-280.0,6.0,-300.0,-719.0,109.0,163.0,-1138.0,42.0,2
898,41.0,-297.0,6.0,-321.0,-698.0,87.0,151.0,-1192.0,45.0,2
899,34.0,-310.0,15.0,-338.0,-680.0,61.0,148.0,-1260.0,66.0,2
900,20.0,-327.0,28.0,-340.0,-662.0,25.0,103.0,-1331.0,103.0,2
901,39.0,-350.0,31.0,-322.0,-628.0,-12.0,150.0,-1411.0,148.0,2
902,34.0,-362.0,52.0,-263.0,-600.0,-62.0,123.0,-1460.0,217.0,2
903,52.0,-366.0,64.0,-193.0,-588.0,-107.0,182.0,-1468.0,278.0,2
904,46.0,-365.0,62.0,-104.0,-582.0,-151.0,185.0,-1483.0,269.0,2
905,30.0,-364.0,60.0,11.0,-584.0,-215.0,125.0,-1465.0,254.0,2
906,25.0,-348.0,62.0,138.0,-602.0,-271.0,97.0,-1427.0,260.0,2
907,20.0,-337.0,59.0,244.0,-630.0,-306.0,76.0,-1361.0,274.0,2
908,17.0,-317.0,60.0,316.0,-653.0,-321.0,54.0,-1296.0,265.0,2
909,11.0,-296.0,61.0,344.0,-672.0,-321.0,46.0,-1212.0,262.0,2
910,4.0,-270.0,78.0,336.0,-690.0,-318.0,24.0,-1147.0,260.0,2
911,1.0,-263.0,62.0,293.0,-716.0,-311.0,-7.0,-1096.0,273.0,2
912,1.0,-254.0,69.0,217.0,-755.0,-300.0,12.0,-1057.0,302.0,2
913,2.0,-247.0,80.0,137.0,-801.0,-293.0,1.0,-1015.0,344.0,2
914,4.0,-247.0,63.0,88.0,-848.0,-285.0,20.0,-1023.0,297.0,2
915,2.0,-255.0,47.0,-35.0,-879.0,-286.0,2.0,-1052.0,232.0,2
916,2.0,-266.0,63.0,-220.0,-901.0,-299.0,22.0,-1111.0,266.0,2
917,20.0,-286.0,63.0,-348.0,-938.0,-318.0,88.0,-1184.0,281.0,2
918,44.0,-313.0,54.0,-403.0,-960.0,-347.0,159.0,-1282.0,257.0,2
919,63.0,-333.0,44.0,-409.0,-959.0,-392.0,229.0,-1350.0,208.0,2
920,80.0,-339.0,35.0,-374.0,-947.0,-445.0,313.0,-1383.0,178.0,2
921,95.0,-345.0,29.0,-293.0,-921.0,-492.0,369.0,-1383.0,148.0,2
922,103.0,-336.0,26.0,-181.0,-876.0,-524.0,401.0,-1367.0,130.0,2
923,105.0,-327.0,17.0,-50.0,-820.0,-531.0,410.0,-1309.0,109.0,2
924,99.0,-305.0,9.0,88.0,-762.0,-518.0,401.0,-1241.0,69.0,2
925,99.0,-288.0,-2.0,216.0,-703.0,-480.0,398.0,-1143.0,12.0,2
926,93.0,-268.0,-19.0,326.0,-641.0,-428.0,337.0,-1076.0,-56.0,2
927,73.0,-256.0,-39.0,400.0,-576.0,-368.0,291.0,-1027.0,-148.0,2
928,55.0,-246.0,-63.0,433.0,-520.0,-299.0,220.0,-998.0,-234.0,2
929,41.0,-240.0,-85.0,446.0,-481.0,-235.0,173.0,-988.0,-312.0,2
930,39.0,-240.0,-104.0,454.0,-451.0,-183.0,158.0,-1000.0,-385.0,2
931,33.0,-252.0,-116.0,456.0,-417.0,-143.0,137.0,-1029.0,-455.0,2
932,34.0,-261.0,-126.0,452.0,-379.0,-112.0,143.0,-1068.0,-494.0,2
933,46.0,-268.0,-134.0,436.0,-342.0,-102.0,171.0,-1107.0,-525.0,2
934,54.0,-279.0,-140.0,404.0,-309.0,-117.0,220.0,-1136.0,-531.0,2
935,61.0,-287.0,-131.0,348.0,-271.0,-150.0,245.0,-1171.0,-521.0,2
936,62.0,-294.0,-123.0,289.0,-219.0,-198.0,250.0,-1196.0,-473.0,2
937,60.0,-303.0,-112.0,238.0,-161.0,-245.0,232.0,-1228.0,-412.0,2
938,52.0,-309.0,-89.0,208.0,-99.0,-270.0,208.0,-1265.0,-346.0,2
939,45.0,-317.0,-76.0,194.0,-35.0,-275.0,180.0,-1284.0,-284.0,2
940,40.0,-307.0,-66.0,187.0,27.0,-260.0,151.0,-1298.0,-224.0,2
941,34.0,-308.0,-57.0,183.0,84.0,-227.0,138.0,-1288.0,-182.0,2
942,31.0,-311.0,-46.0,187.0,139.0,-179.0,124.0,-1275.0,-159.0,2
943,29.0,-306.0,-40.0,199.0,200.0,-120.0,108.0,-1241.0,-139.0,2
944,21.0,-298.0,-41.0,210.0,259.0,-54.0,81.0,-1210.0,-123.0,2
945,13.0,-291.0,-37.0,198.0,302.0,13.0,58.0,-1192.0,-116.0,2
946,9.0,-288.0,-40.0,162.0,316.0,80.0,56.0,-1168.0,-122.0,2
947,14.0,-284.0,-38.0,117.0,314.0,147.0,52.0,-1164.0,-118.0,2
948,15.0,-287.0,-42.0,82.0,317.0,204.0,70.0,-1167.0,-123.0,2
949,17.0,-283.0,-29.0,57.0,333.0,250.0,81.0,-1159.0,-96.0,2
950,21.0,-282.0,-24.0,73.0,361.0,293.0,87.0,-1147.0,-67.0,2
951,19.0,-275.0,-22.0,131.0,396.0,336.0,90.0,-1127.0,-57.0,2
952,18.0,-275.0,-24.0,196.0,443.0,375.0,94.0,-1099.0,-66.0,2
953,22.0,-261.0,-25.0,238.0,499.0,412.0,93.0,-1070.0,-80.0,2
954,15.0,-247.0,-32.0,261.0,552.0,452.0,72.0,-1027.0,-95.0,2
955,10.0,-244.0,-36.0,277.0,597.0,494.0,53.0,-993.0,-107.0,2
956,12.0,-238.0,-50.0,283.0,636.0,535.0,51.0,-959.0,-149.0,2
957,8.0,-225.0,-58.0,261.0,666.0,568.0,39.0,-938.0,-207.0,2
958,4.0,-216.0,-64.0,199.0,687.0,595.0,29.0,-908.0,-231.0,2
959,1.0,-209.0,-59.0,143.0,699.0,613.0,19.0,-864.0,-211.0,2
960,0.0,-207.0,-67.0,135.0,702.0,624.0,12.0,-842.0,-239.0,2
961,1.0,-204.0,-69.0,125.0,699.0,626.0,2.0,-830.0,-256.0,2
962,-4.0,-201.0,-60.0,113.0,690.0,627.0,0.0,-826.0,-211.0,2
963,0.0,-205.0,-56.0,91.0,677.0,626.0,10.0,-848.0,-210.0,2
964,0.0,-198.0,-43.0,39.0,653.0,619.0,10.0,-847.0,-162.0,2
965,0.0,-200.0,-37.0,-14.0,626.0,612.0,18.0,-839.0,-117.0,2
966,-2.0,-200.0,-18.0,-47.0,612.0,611.0,-3.0,-815.0,-56.0,2
967,0.0,-194.0,-11.0,-18.0,600.0,623.0,-7.0,-791.0,-30.0,2
968,0.0,-191.0,-5.0,19.0,597.0,629.0,-3.0,-787.0,-27.0,2
969,-7.0,-186.0,-24.0,39.0,612.0,632.0,-10.0,-778.0,-54.0,2
970,-10.0,-185.0,-20.0,17.0,628.0,631.0,-35.0,-762.0,-75.0,2
971,-10.0,-188.0,-22.0,-23.0,638.0,632.0,-36.0,-751.0,-64.0,2
972,-11.0,-181.0,-22.0,-36.0,630.0,626.0,-45.0,-748.0,-75.0,2
973,-9.0,-181.0,-25.0,-36.0,612.0,619.0,-29.0,-747.0,-81.0,2
974,-7.0,-183.0,-31.0,-29.0,604.0,609.0,-18.0,-743.0,-99.0,2
975,-7.0,-178.0,-38.0,-39.0,596.0,600.0,-21.0,-732.0,-123.0,2
976,-1.0,-181.0,-37.0,-71.0,580.0,590.0,-17.0,-747.0,-125.0,2
977,-5.0,-186.0,-33.0,-120.0,566.0,563.0,-16.0,-762.0,-115.0,2
978,-8.0,-191.0,-25.0,-186.0,556.0,524.0,-23.0,-783.0,-80.0,2
979,-11.0,-200.0,-17.0,-245.0,547.0,485.0,-25.0,-815.0,-53.0,2
980,-11.0,-210.0,-22.0,-291.0,536.0,444.0,-37.0,-851.0,-45.0,2
981,-9.0,-212.0,1.0,-340.0,534.0,405.0,-22.0,-864.0,19.0,2
982,-12.0,-216.0,17.0,-309.0,517.0,357.0,-56.0,-866.0,84.0,2
983,-10.0,-218.0,2.0,-202.0,486.0,335.0,-46.0,-878.0,47.0,2
984,-10.0,-210.0,-4.0,-130.0,478.0,320.0,-32.0,-862.0,3.0,2
985,-10.0,-205.0,-1.0,-106.0,482.0,295.0,-34.0,-845.0,1.0,2
986,-15.0,-198.0,-4.0,-105.0,474.0,266.0,-50.0,-823.0,7.0,2
987,-19.0,-192.0,-3.0,-107.0,459.0,246.0,-57.0,-799.0,9.0,2
988,-15.0,-192.0,4.0,-100.0,446.0,237.0,-62.0,-787.0,12.0,2
989,-18.0,-190.0,4.0,-96.0,437.0,227.0,-64.0,-776.0,26.0,2
990,-19.0,-190.0,2.0,-102.0,423.0,212.0,-67.0,-778.0,40.0,2
991,-15.0,-193.0,7.0,-112.0,409.0,192.0,-58.0,-796.0,59.0,2
992,-13.0,-197.0,14.0,-125.0,400.0,167.0,-61.0,-806.0,79.0,2
993,-13.0,-203.0,21.0,-138.0,399.0,139.0,-59.0,-825.0,101.0,2
994,-13.0,-208.0,27.0,-143.0,402.0,108.0,-56.0,-856.0,131.0,2
995,-11.0,-216.0,38.0,-129.0,404.0,80.0,-46.0,-863.0,167.0,2
996,-14.0,-214.0,39.0,-91.0,413.0,45.0,-60.0,-881.0,182.0,2
997,-14.0,-219.0,32.0,-58.0,403.0,8.0,-51.0,-900.0,144.0,2
998,-9.0,-221.0,36.0,-55.0,385.0,-32.0,-35.0,-899.0,156.0,2
999,-12.0,-223.0,29.0,-40.0,388.0,-75.0,-37.0,-911.0,140.0,2
1000,-10.0,-225.0,32.0,-21.0,397.0,-110.0,-37.0,-916.0,146.0,2
1001,-7.0,-224.0,32.0,5.0,400.0,-142.0,-29.0,-925.0,146.0,2
1002,-11.0,-228.0,41.0,33.0,405.0,-168.0,-47.0,-928.0,173.0,2
1003,-14.0,-230.0,36.0,68.0,407.0,-191.0,-66.0,-939.0,167.0,2
1004,-22.0,-233.0,43.0,86.0,411.0,-204.0,-78.0,-954.0,186.0,2
1005,-20.0,-245.0,44.0,96.0,409.0,-212.0,-84.0,-972.0,202.0,2
1006,-21.0,-243.0,50.0,102.0,408.0,-219.0,-85.0,-992.0,210.0,2
1007,-24.0,-244.0,45.0,106.0,412.0,-224.0,-101.0,-1005.0,212.0,2
1008,-24.0,-250.0,47.0,107.0,420.0,-225.0,-108.0,-1018.0,214.0,2
1009,-16.0,-257.0,44.0,102.0,430.0,-220.0,-80.0,-1031.0,202.0,2
1010,-4.0,-260.0,43.0,100.0,446.0,-208.0,-22.0,-1060.0,180.0,2
1011,2.0,-265.0,31.0,101.0,475.0,-196.0,11.0,-1088.0,145.0,2
1012,6.0,-268.0,26.0,102.0,513.0,-189.0,20.0,-1094.0,125.0,2
1013,1.0,-268.0,19.0,92.0,557.0,-185.0,11.0,-1101.0,85.0,2
1014,3.0,-268.0,1.0,75.0,584.0,-184.0,15.0,-1105.0,27.0,2
1015,-1.0,-271.0,-9.0,53.0,586.0,-175.0,-8.0,-1115.0,-38.0,2
1016,-12.0,-273.0,-23.0,24.0,576.0,-159.0,-56.0,-1120.0,-78.0,2
1017,-35.0,-275.0,-27.0,-12.0,560.0,-132.0,-125.0,-1130.0,-73.0,2
1018,-52.0,-279.0,-14.0,-39.0,537.0,-102.0,-196.0,-1134.0,-41.0,2
1019,-59.0,-281.0,-6.0,-49.0,503.0,-68.0,-227.0,-1136.0,-3.0,2
1020,-58.0,-281.0,4.0,-52.0,464.0,-32.0,-226.0,-1146.0,45.0,2
1021,-48.0,-287.0,21.0,-58.0,442.0,11.0,-192.0,-1167.0,118.0,2
1022,-43.0,-291.0,53.0,-70.0,445.0,64.0,-175.0,-1182.0,203.0,2
1023,-38.0,-290.0,65.0,-77.0,463.0,112.0,-157.0,-1194.0,288.0,2
1024,-37.0,-295.0,81.0,-71.0,490.0,151.0,-144.0,-1203.0,360.0,2
1025,-28.0,-298.0,88.0,-48.0,518.0,184.0,-110.0,-1217.0,400.0,2
1026,-14.0,-301.0,95.0,-15.0,548.0,210.0,-67.0,-1215.0,425.0,2
1027,1.0,-301.0,100.0,27.0,581.0,228.0,-10.0,-1211.0,435.0,2
1028,6.0,-297.0,94.0,68.0,615.0,238.0,15.0,-1198.0,409.0,2
1029,23.0,-287.0,78.0,85.0,653.0,243.0,65.0,-1183.0,361.0,2
1030,30.0,-285.0,70.0,57.0,689.0,250.0,112.0,-1178.0,315.0,2
1031,34.0,-286.0,64.0,-19.0,752.0,255.0,125.0,-1184.0,290.0,2
1032,24.0,-298.0,57.0,-116.0,836.0,257.0,90.0,-1215.0,253.0,2
1033,1.0,-306.0,48.0,-215.0,908.0,261.0,-7.0,-1249.0,226.0,2
1034,-30.0,-316.0,39.0,-284.0,949.0,260.0,-103.0,-1285.0,166.0,2
1035,-46.0,-321.0,23.0,-309.0,957.0,262.0,-180.0,-1314.0,106.0,2
1036,-59.0,-325.0,5.0,-297.0,940.0,262.0,-217.0,-1333.0,33.0,2
1037,-64.0,-335.0,-5.0,-254.0,910.0,267.0,-234.0,-1367.0,-21.0,2
1038,-68.0,-341.0,-12.0,-176.0,876.0,276.0,-244.0,-1385.0,-31.0,2
1039,-70.0,-335.0,-12.0,-57.0,830.0,290.0,-268.0,-1371.0,-25.0,2
1040,-79.0,-326.0,-20.0,83.0,769.0,295.0,-309.0,-1314.0,-69.0,2
1041,-87.0,-305.0,-40.0,202.0,691.0,295.0,-321.0,-1241.0,-138.0,2
1042,-84.0,-289.0,-62.0,257.0,602.0,287.0,-320.0,-1173.0,-221.0,2
1043,-83.0,-279.0,-75.0,242.0,513.0,280.0,-310.0,-1136.0,-268.0,2
1044,-81.0,-274.0,-82.0,190.0,434.0,283.0,-289.0,-1126.0,-299.0,2
1045,-74.0,-275.0,-85.0,127.0,357.0,291.0,-270.0,-1126.0,-318.0,2
1046,-64.0,-281.0,-86.0,72.0,281.0,307.0,-228.0,-1140.0,-334.0,2
1047,-53.0,-286.0,-89.0,34.0,211.0,331.0,-200.0,-1158.0,-349.0,2
1048,-49.0,-288.0,-99.0,13.0,150.0,356.0,-173.0,-1170.0,-374.0,2
1049,-37.0,-295.0,-114.0,3.0,93.0,381.0,-132.0,-1195.0,-415.0,2
1050,-24.0,-306.0,-120.0,12.0,44.0,410.0,-80.0,-1229.0,-462.0,2
1051,-5.0,-318.0,-126.0,40.0,16.0,447.0,-9.0,-1287.0,-484.0,2
1052,20.0,-329.0,-121.0,94.0,16.0,489.0,74.0,-1329.0,-459.0,2
1053,43.0,-341.0,-97.0,183.0,48.0,518.0,161.0,-1370.0,-366.0,2
1054,60.0,-338.0,-72.0,298.0,101.0,522.0,231.0,-1363.0,-277.0,2
1055,64.0,-332.0,-58.0,425.0,150.0,489.0,265.0,-1344.0,-205.0,2
1056,61.0,-323.0,-47.0,542.0,182.0,424.0,264.0,-1288.0,-157.0,2
1057,61.0,-301.0,-51.0,627.0,190.0,339.0,242.0,-1220.0,-176.0,2
1058,54.0,-285.0,-68.0,667.0,184.0,246.0,225.0,-1169.0,-230.0,2
1059,51.0,-265.0,-86.0,663.0,178.0,157.0,198.0,-1123.0,-288.0,2
1060,41.0,-268.0,-87.0,631.0,190.0,85.0,167.0,-1098.0,-344.0,2
1061,28.0,-264.0,-95.0,593.0,218.0,25.0,104.0,-1091.0,-349.0,2
1062,10.0,-266.0,-87.0,562.0,253.0,-16.0,47.0,-1088.0,-320.0,2
1063,1.0,-268.0,-69.0,530.0,269.0,-44.0,25.0,-1108.0,-265.0,2
1064,-1.0,-274.0,-54.0,497.0,273.0,-69.0,7.0,-1120.0,-195.0,2
1065,-3.0,-278.0,-38.0,467.0,276.0,-106.0,0.0,-1137.0,-121.0,2
1066,-1.0,-281.0,-21.0,444.0,274.0,-155.0,19.0,-1150.0,-60.0,2
1067,6.0,-286.0,-5.0,441.0,261.0,-211.0,33.0,-1159.0,9.0,2
1068,11.0,-284.0,-9.0,474.0,243.0,-281.0,49.0,-1159.0,5.0,2
1069,22.0,-279.0,-14.0,513.0,222.0,-351.0,86.0,-1138.0,-32.0,2
1070,27.0,-274.0,-23.0,559.0,206.0,-427.0,103.0,-1120.0,-63.0,2
1071,26.0,-264.0,-31.0,604.0,202.0,-500.0,110.0,-1088.0,-95.0,2
1072,20.0,-253.0,-38.0,636.0,195.0,-566.0,95.0,-1045.0,-129.0,2
1073,15.0,-243.0,-47.0,640.0,186.0,-613.0,77.0,-1001.0,-159.0,2
1074,7.0,-222.0,-48.0,612.0,183.0,-645.0,53.0,-945.0,-159.0,2
1075,4.0,-216.0,-44.0,567.0,182.0,-664.0,20.0,-888.0,-160.0,2
1076,-6.0,-200.0,-38.0,492.0,181.0,-674.0,-16.0,-830.0,-144.0,2
1077,-15.0,-192.0,-36.0,409.0,171.0,-673.0,-58.0,-796.0,-124.0,2
1078,-24.0,-185.0,-32.0,318.0,163.0,-660.0,-86.0,-764.0,-112.0,2
1079,-32.0,-183.0,-22.0,227.0,159.0,-646.0,-110.0,-745.0,-76.0,2
1080,-35.0,-177.0,-15.0,153.0,146.0,-634.0,-140.0,-728.0,-42.0,2
1081,-43.0,-173.0,-3.0,105.0,120.0,-625.0,-166.0,-714.0,-13.0,2
1082,-52.0,-172.0,-3.0,78.0,86.0,-606.0,-191.0,-703.0,-8.0,2
1083,-50.0,-174.0,-8.0,62.0,37.0,-578.0,-193.0,-714.0,-14.0,2
1084,-44.0,-172.0,-4.0,26.0,-16.0,-550.0,-169.0,-709.0,-15.0,2
1085,-42.0,-170.0,-9.0,-13.0,-75.0,-525.0,-155.0,-713.0,-19.0,2
1086,-38.0,-181.0,-11.0,-75.0,-129.0,-514.0,-149.0,-735.0,-23.0,2
1087,-38.0,-184.0,-8.0,-164.0,-182.0,-511.0,-141.0,-760.0,-17.0,2
1088,-37.0,-196.0,5.0,-250.0,-220.0,-510.0,-141.0,-807.0,21.0,2
1089,-34.0,-208.0,8.0,-290.0,-252.0,-509.0,-125.0,-850.0,57.0,2
1090,-28.0,-218.0,11.0,-285.0,-284.0,-510.0,-109.0,-879.0,66.0,2
1091,-21.0,-221.0,16.0,-257.0,-324.0,-510.0,-80.0,-897.0,81.0,2
1092,-8.0,-220.0,2.0,-198.0,-365.0,-514.0,-51.0,-889.0,27.0,2
1093,-17.0,-221.0,8.0,-157.0,-377.0,-513.0,-50.0,-889.0,64.0,2
1094,-8.0,-212.0,-2.0,-123.0,-403.0,-507.0,-35.0,-883.0,26.0,2
1095,-7.0,-210.0,18.0,-135.0,-436.0,-499.0,-29.0,-848.0,120.0,2
1096,6.0,-199.0,21.0,-71.0,-452.0,-476.0,25.0,-807.0,92.0,2
1097,9.0,-186.0,1.0,16.0,-461.0,-476.0,48.0,-772.0,15.0,2
1098,15.0,-181.0,3.0,1.0,-478.0,-471.0,76.0,-740.0,21.0,2
1099,19.0,-173.0,-6.0,-48.0,-495.0,-453.0,79.0,-718.0,13.0,2
1100,23.0,-168.0,2.0,-104.0,-501.0,-424.0,99.0,-700.0,21.0,2
1101,27.0,-167.0,0.0,-168.0,-504.0,-397.0,107.0,-700.0,29.0,2
1102,31.0,-174.0,5.0,-233.0,-514.0,-369.0,121.0,-717.0,33.0,2
1103,33.0,-180.0,11.0,-297.0,-516.0,-341.0,135.0,-738.0,50.0,2
1104,41.0,-189.0,13.0,-346.0,-511.0,-313.0,160.0,-761.0,57.0,2
1105,42.0,-193.0,15.0,-381.0,-504.0,-291.0,154.0,-787.0,83.0,2
1106,43.0,-200.0,20.0,-387.0,-489.0,-266.0,159.0,-817.0,106.0,2
1107,41.0,-208.0,25.0,-371.0,-468.0,-236.0,158.0,-840.0,127.0,2
1108,40.0,-214.0,35.0,-338.0,-450.0,-215.0,157.0,-868.0,160.0,2
1109,35.0,-218.0,44.0,-289.0,-437.0,-194.0,137.0,-893.0,191.0,2
1110,31.0,-225.0,41.0,-230.0,-435.0,-169.0,121.0,-917.0,204.0,2
1111,21.0,-225.0,50.0,-171.0,-437.0,-146.0,94.0,-928.0,211.0,2
1112,15.0,-225.0,50.0,-113.0,-442.0,-128.0,66.0,-923.0,216.0,2
1113,8.0,-223.0,50.0,-55.0,-454.0,-107.0,51.0,-921.0,217.0,2
1114,6.0,-220.0,49.0,-4.0,-469.0,-87.0,35.0,-916.0,201.0,2
1115,5.0,-217.0,49.0,36.0,-481.0,-66.0,25.0,-897.0,206.0,2
1116,3.0,-214.0,46.0,67.0,-488.0,-40.0,15.0,-884.0,197.0,2
1117,2.0,-209.0,43.0,89.0,-494.0,-15.0,9.0,-866.0,195.0,2
1118,0.0,-206.0,41.0,101.0,-503.0,10.0,1.0,-850.0,193.0,2
1119,-2.0,-203.0,40.0,106.0,-517.0,35.0,1.0,-837.0,176.0,2
1120,0.0,-201.0,36.0,106.0,-531.0,57.0,2.0,-825.0,157.0,2
1121,1.0,-198.0,29.0,98.0,-541.0,77.0,6.0,-821.0,138.0,2
1122,1.0,-196.0,19.0,80.0,-547.0,92.0,8.0,-810.0,110.0,2
1123,4.0,-198.0,14.0,49.0,-552.0,105.0,17.0,-820.0,84.0,2
1124,8.0,-201.0,12.0,11.0,-555.0,115.0,31.0,-838.0,61.0,2
1125,13.0,-208.0,9.0,-40.0,-554.0,123.0,54.0,-867.0,48.0,2
1126,17.0,-218.0,9.0,-99.0,-553.0,131.0,76.0,-910.0,54.0,2
1127,26.0,-231.0,15.0,-166.0,-552.0,132.0,100.0,-951.0,65.0,2
1128,29.0,-248.0,9.0,-234.0,-545.0,127.0,118.0,-1002.0,69.0,2
1129,35.0,-259.0,10.0,-295.0,-539.0,116.0,129.0,-1067.0,68.0,2
1130,36.0,-276.0,9.0,-343.0,-535.0,99.0,136.0,-1128.0,56.0,2
1131,37.0,-297.0,7.0,-378.0,-535.0,72.0,144.0,-1199.0,48.0,2
1132,33.0,-315.0,8.0,-398.0,-533.0,39.0,128.0,-1270.0,49.0,2
1133,32.0,-330.0,12.0,-402.0,-524.0,2.0,136.0,-1340.0,65.0,2
1134,24.0,-344.0,12.0,-385.0,-507.0,-40.0,105.0,-1393.0,71.0,2
1135,33.0,-367.0,23.0,-342.0,-469.0,-78.0,127.0,-1466.0,119.0,2
1136,21.0,-371.0,49.0,-247.0,-432.0,-116.0,89.0,-1493.0,204.0,2
1137,35.0,-359.0,65.0,-149.0,-403.0,-150.0,135.0,-1463.0,260.0,2
1138,41.0,-356.0,55.0,-50.0,-384.0,-178.0,158.0,-1446.0,251.0,2
1139,37.0,-351.0,53.0,74.0,-366.0,-220.0,149.0,-1394.0,244.0,2
1140,24.0,-327.0,50.0,216.0,-373.0,-275.0,93.0,-1331.0,236.0,2
1141,19.0,-306.0,59.0,327.0,-404.0,-311.0,64.0,-1236.0,241.0,2
1142,11.0,-284.0,52.0,385.0,-438.0,-325.0,51.0,-1159.0,251.0,2
1143,12.0,-262.0,53.0,385.0,-470.0,-324.0,48.0,-1098.0,218.0,2
1144,7.0,-252.0,51.0,315.0,-496.0,-311.0,25.0,-1038.0,206.0,2
1145,-5.0,-238.0,43.0,186.0,-511.0,-292.0,-14.0,-1011.0,191.0,2
1146,-11.0,-251.0,33.0,30.0,-542.0,-279.0,-35.0,-1028.0,147.0,2
1147,-12.0,-263.0,21.0,-123.0,-589.0,-279.0,-40.0,-1090.0,101.0,2
1148,-8.0,-286.0,12.0,-246.0,-632.0,-286.0,-36.0,-1173.0,73.0,2
1149,-1.0,-307.0,16.0,-319.0,-656.0,-301.0,1.0,-1253.0,78.0,2
1150,13.0,-332.0,14.0,-327.0,-661.0,-322.0,58.0,-1348.0,91.0,2
1151,34.0,-353.0,22.0,-270.0,-653.0,-348.0,127.0,-1416.0,109.0,2
1152,50.0,-362.0,25.0,-160.0,-635.0,-370.0,185.0,-1464.0,101.0,2
1153,59.0,-365.0,19.0,-20.0,-608.0,-386.0,229.0,-1470.0,103.0,2
1154,67.0,-366.0,17.0,120.0,-576.0,-398.0,275.0,-1460.0,93.0,2
1155,79.0,-354.0,16.0,239.0,-540.0,-396.0,310.0,-1436.0,72.0,2
1156,92.0,-343.0,3.0,333.0,-492.0,-382.0,344.0,-1401.0,49.0,2
1157,97.0,-329.0,-6.0,417.0,-432.0,-353.0,371.0,-1346.0,21.0,2
1158,103.0,-313.0,-23.0,501.0,-355.0,-313.0,394.0,-1285.0,-42.0,2
1159,101.0,-298.0,-43.0,581.0,-261.0,-267.0,407.0,-1199.0,-153.0,2
1160,96.0,-279.0,-63.0,652.0,-162.0,-225.0,378.0,-1118.0,-226.0,2
1161,82.0,-259.0,-83.0,713.0,-66.0,-190.0,318.0,-1065.0,-304.0,2
1162,72.0,-245.0,-97.0,757.0,14.0,-153.0,290.0,-996.0,-373.0,2
1163,69.0,-232.0,-115.0,787.0,84.0,-115.0,278.0,-954.0,-420.0,2
1164,68.0,-227.0,-117.0,778.0,149.0,-92.0,268.0,-937.0,-459.0,2
1165,56.0,-224.0,-120.0,714.0,201.0,-85.0,235.0,-928.0,-466.0,2
1166,62.0,-227.0,-115.0,605.0,225.0,-79.0,241.0,-941.0,-436.0,2
1167,64.0,-233.0,-114.0,488.0,245.0,-80.0,257.0,-964.0,-415.0,2
1168,61.0,-246.0,-106.0,367.0,277.0,-88.0,246.0,-1013.0,-406.0,2
1169,56.0,-259.0,-97.0,256.0,317.0,-101.0,218.0,-1063.0,-370.0,2
1170,55.0,-271.0,-87.0,179.0,357.0,-114.0,211.0,-1109.0,-333.0,2
1171,48.0,-282.0,-81.0,149.0,403.0,-112.0,185.0,-1149.0,-302.0,2
1172,39.0,-287.0,-76.0,151.0,459.0,-96.0,170.0,-1176.0,-278.0,2
1173,30.0,-291.0,-63.0,151.0,520.0,-68.0,123.0,-1183.0,-233.0,2
1174,23.0,-288.0,-50.0,142.0,569.0,-30.0,97.0,-1178.0,-174.0,2
1175,16.0,-292.0,-31.0,118.0,607.0,17.0,85.0,-1181.0,-102.0,2
1176,20.0,-291.0,-20.0,86.0,634.0,78.0,72.0,-1183.0,-64.0,2
1177,12.0,-294.0,-18.0,49.0,663.0,145.0,54.0,-1193.0,-51.0,2
1178,3.0,-297.0,-15.0,9.0,693.0,205.0,31.0,-1196.0,-29.0,2
1179,-2.0,-293.0,-6.0,-16.0,716.0,253.0,3.0,-1202.0,-3.0,2
1180,-8.0,-296.0,-2.0,-6.0,724.0,283.0,-12.0,-1204.0,13.0,2
1181,-11.0,-290.0,-4.0,28.0,724.0,305.0,-19.0,-1180.0,13.0,2
1182,-6.0,-287.0,0.0,68.0,726.0,325.0,-23.0,-1158.0,20.0,2
1183,-10.0,-271.0,0.0,133.0,731.0,348.0,-30.0,-1118.0,25.0,2
1184,-6.0,-264.0,2.0,218.0,733.0,362.0,-23.0,-1068.0,18.0,2
1185,-2.0,-249.0,-13.0,304.0,737.0,377.0,-7.0,-1007.0,-20.0,2
1186,-5.0,-232.0,-16.0,353.0,753.0,392.0,-9.0,-962.0,-59.0,2
1187,-5.0,-227.0,-27.0,357.0,780.0,418.0,-8.0,-939.0,-97.0,2
1188,-2.0,-222.0,-40.0,325.0,811.0,448.0,-10.0,-917.0,-117.0,2
1189,-4.0,-219.0,-39.0,276.0,843.0,474.0,-12.0,-910.0,-123.0,2
1190,-5.0,-218.0,-39.0,221.0,868.0,489.0,-13.0,-892.0,-120.0,2
1191,-7.0,-212.0,-40.0,169.0,885.0,501.0,-17.0,-900.0,-143.0,2
1192,-1.0,-215.0,-45.0,93.0,896.0,515.0,-6.0,-908.0,-148.0,2
1193,1.0,-218.0,-41.0,-8.0,897.0,522.0,16.0,-911.0,-147.0,2
1194,0.0,-221.0,-34.0,-113.0,888.0,513.0,4.0,-914.0,-121.0,2
1195,2.0,-222.0,-30.0,-188.0,873.0,504.0,25.0,-922.0,-100.0,2
1196,6.0,-226.0,-19.0,-237.0,856.0,485.0,32.0,-925.0,-65.0,2
1197,6.0,-227.0,-6.0,-264.0,833.0,462.0,40.0,-938.0,-28.0,2
1198,5.0,-231.0,2.0,-266.0,802.0,442.0,39.0,-946.0,17.0,2
1199,2.0,-233.0,3.0,-245.0,768.0,423.0,16.0,-949.0,31.0,2
1200,-2.0,-232.0,10.0,-210.0,744.0,414.0,6.0,-936.0,61.0,2
1201,-3.0,-230.0,20.0,-137.0,729.0,413.0,-13.0,-928.0,100.0,2
1202,-9.0,-214.0,10.0,-35.0,712.0,416.0,-32.0,-892.0,65.0,2
1203,-14.0,-207.0,0.0,51.0,697.0,422.0,-43.0,-852.0,16.0,2
1204,-14.0,-202.0,-6.0,94.0,695.0,432.0,-40.0,-829.0,-28.0,2
1205,-12.0,-195.0,-10.0,95.0,699.0,434.0,-38.0,-798.0,-31.0,2
1206,-10.0,-185.0,-15.0,81.0,702.0,427.0,-37.0,-766.0,-46.0,2
1207,-9.0,-179.0,-21.0,68.0,705.0,427.0,-31.0,-742.0,-58.0,2
1208,-6.0,-179.0,-25.0,45.0,709.0,425.0,-27.0,-729.0,-70.0,2
1209,-10.0,-175.0,-22.0,1.0,713.0,413.0,-37.0,-726.0,-68.0,2
1210,-17.0,-177.0,-21.0,-56.0,711.0,391.0,-59.0,-744.0,-54.0,2
1211,-24.0,-184.0,-15.0,-117.0,701.0,366.0,-80.0,-758.0,-39.0,2
1212,-24.0,-195.0,-9.0,-168.0,682.0,339.0,-93.0,-784.0,-21.0,2
1213,-29.0,-202.0,-6.0,-204.0,654.0,308.0,-103.0,-816.0,-4.0,2
1214,-29.0,-204.0,0.0,-226.0,624.0,280.0,-113.0,-841.0,14.0,2
1215,-30.0,-206.0,0.0,-231.0,599.0,251.0,-104.0,-852.0,25.0,2
1216,-31.0,-206.0,6.0,-220.0,577.0,224.0,-116.0,-858.0,47.0,2
1217,-36.0,-207.0,11.0,-199.0,547.0,195.0,-122.0,-847.0,59.0,2
1218,-34.0,-204.0,10.0,-170.0,512.0,170.0,-125.0,-846.0,45.0,2
1219,-39.0,-203.0,3.0,-165.0,478.0,145.0,-127.0,-850.0,33.0,2
1220,-35.0,-208.0,4.0,-182.0,442.0,119.0,-123.0,-845.0,37.0,2
1221,-30.0,-210.0,3.0,-207.0,408.0,93.0,-120.0,-860.0,41.0,2
1222,-32.0,-211.0,11.0,-225.0,376.0,66.0,-113.0,-866.0,51.0,2
1223,-30.0,-215.0,15.0,-229.0,347.0,43.0,-120.0,-877.0,69.0,2
1224,-33.0,-218.0,18.0,-219.0,325.0,23.0,-114.0,-889.0,91.0,2
1225,-29.0,-223.0,21.0,-193.0,311.0,6.0,-117.0,-900.0,98.0,2
1226,-34.0,-223.0,27.0,-162.0,295.0,-10.0,-120.0,-913.0,131.0,2
1227,-34.0,-219.0,28.0,-115.0,281.0,-30.0,-130.0,-902.0,146.0,2
1228,-37.0,-220.0,33.0,-68.0,267.0,-43.0,-135.0,-898.0,152.0,2
1229,-43.0,-213.0,31.0,-21.0,250.0,-58.0,-149.0,-881.0,153.0,2
1230,-44.0,-215.0,30.0,20.0,230.0,-77.0,-170.0,-870.0,152.0,2
1231,-46.0,-208.0,30.0,52.0,206.0,-97.0,-179.0,-857.0,139.0,2
1232,-52.0,-210.0,26.0,69.0,174.0,-121.0,-191.0,-849.0,123.0,2
1233,-52.0,-206.0,21.0,55.0,144.0,-148.0,-201.0,-852.0,96.0,2
1234,-56.0,-207.0,38.0,38.0,112.0,-176.0,-212.0,-844.0,162.0,2
1235,-54.0,-210.0,27.0,59.0,78.0,-204.0,-200.0,-866.0,146.0,2
1236,-47.0,-214.0,30.0,53.0,50.0,-228.0,-186.0,-878.0,136.0,2
1237,-37.0,-220.0,36.0,22.0,34.0,-249.0,-160.0,-905.0,146.0,2
1238,-36.0,-223.0,35.0,-8.0,34.0,-264.0,-145.0,-928.0,172.0,2
1239,-33.0,-233.0,40.0,-31.0,49.0,-272.0,-130.0,-954.0,177.0,2
1240,-30.0,-238.0,44.0,-44.0,68.0,-275.0,-120.0,-969.0,190.0,2
1241,-26.0,-240.0,42.0,-46.0,87.0,-280.0,-102.0,-983.0,175.0,2
1242,-22.0,-238.0,29.0,-42.0,96.0,-282.0,-77.0,-993.0,147.0,2
1243,-18.0,-241.0,21.0,-35.0,104.0,-282.0,-57.0,-986.0,108.0,2
1244,-12.0,-241.0,12.0,-35.0,112.0,-281.0,-46.0,-992.0,66.0,2
1245,-9.0,-243.0,9.0,-45.0,119.0,-280.0,-33.0,-1000.0,53.0,2
1246,-7.0,-248.0,6.0,-65.0,126.0,-279.0,-20.0,-1002.0,48.0,2
1247,0.0,-251.0,7.0,-87.0,132.0,-275.0,-11.0,-1023.0,37.0,2
1248,0.0,-256.0,5.0,-113.0,135.0,-271.0,-11.0,-1031.0,24.0,2
1249,-6.0,-257.0,1.0,-138.0,138.0,-264.0,-23.0,-1052.0,6.0,2
1250,-10.0,-258.0,-11.0,-165.0,139.0,-249.0,-41.0,-1070.0,-22.0,2
1251,-21.0,-263.0,-15.0,-197.0,135.0,-226.0,-78.0,-1080.0,-43.0,2
1252,-33.0,-266.0,-18.0,-230.0,123.0,-194.0,-119.0,-1103.0,-51.0,2
1253,-41.0,-277.0,-12.0,-253.0,102.0,-149.0,-157.0,-1129.0,-36.0,2
1254,-49.0,-280.0,-4.0,-264.0,76.0,-102.0,-192.0,-1149.0,-5.0,2
1255,-53.0,-289.0,6.0,-262.0,51.0,-52.0,-200.0,-1179.0,33.0,2
1256,-54.0,-296.0,16.0,-246.0,36.0,-4.0,-203.0,-1194.0,78.0,2
1257,-55.0,-295.0,34.0,-215.0,36.0,31.0,-218.0,-1201.0,134.0,2
1258,-50.0,-294.0,41.0,-175.0,46.0,62.0,-206.0,-1203.0,176.0,2
1259,-45.0,-295.0,47.0,-149.0,59.0,84.0,-185.0,-1199.0,213.0,2
1260,-42.0,-293.0,52.0,-138.0,79.0,100.0,-167.0,-1189.0,232.0,2
1261,-35.0,-288.0,53.0,-142.0,102.0,116.0,-147.0,-1190.0,217.0,2
1262,-31.0,-286.0,45.0,-158.0,122.0,127.0,-132.0,-1183.0,213.0,2
1263,-29.0,-285.0,36.0,-191.0,139.0,136.0,-101.0,-1185.0,164.0,2
1264,-15.0,-293.0,26.0,-264.0,149.0,158.0,-68.0,-1201.0,130.0,2
1265,-6.0,-308.0,12.0,-362.0,165.0,191.0,-39.0,-1287.0,68.0,2
1266,5.0,-330.0,9.0,-491.0,184.0,230.0,26.0,-1362.0,57.0,2
1267,1.0,-358.0,18.0,-591.0,225.0,259.0,12.0,-1462.0,77.0,2
1268,0.0,-379.0,15.0,-605.0,257.0,281.0,-5.0,-1536.0,85.0,2
1269,-11.0,-392.0,8.0,-525.0,254.0,289.0,-36.0,-1592.0,53.0,2
1270,-24.0,-395.0,-6.0,-389.0,231.0,286.0,-78.0,-1598.0,-3.0,2
1271,-36.0,-389.0,-28.0,-238.0,209.0,279.0,-113.0,-1582.0,-91.0,2
1272,-41.0,-384.0,-49.0,-95.0,190.0,274.0,-149.0,-1550.0,-171.0,2
1273,-49.0,-375.0,-61.0,26.0,174.0,276.0,-183.0,-1496.0,-225.0,2
1274,-57.0,-358.0,-68.0,138.0,155.0,282.0,-205.0,-1450.0,-252.0,2
1275,-65.0,-343.0,-73.0,249.0,128.0,292.0,-231.0,-1387.0,-268.0,2
1276,-65.0,-322.0,-78.0,353.0,85.0,309.0,-234.0,-1321.0,-304.0,2
1277,-64.0,-306.0,-93.0,423.0,33.0,340.0,-234.0,-1248.0,-357.0,2
1278,-65.0,-296.0,-104.0,460.0,-14.0,378.0,-237.0,-1200.0,-400.0,2
1279,-60.0,-285.0,-112.0,466.0,-53.0,410.0,-213.0,-1164.0,-426.0,2
1280,-46.0,-277.0,-114.0,457.0,-89.0,440.0,-172.0,-1133.0,-435.0,2
1281,-27.0,-274.0,-107.0,443.0,-117.0,455.0,-101.0,-1119.0,-425.0,2
1282,-4.0,-269.0,-102.0,431.0,-138.0,449.0,-17.0,-1113.0,-401.0,2
1283,8.0,-269.0,-95.0,425.0,-153.0,432.0,62.0,-1114.0,-356.0,2
1284,34.0,-279.0,-76.0,413.0,-156.0,409.0,137.0,-1135.0,-287.0,2
1285,45.0,-285.0,-55.0,390.0,-136.0,372.0,172.0,-1161.0,-181.0,2
1286,42.0,-289.0,-35.0,386.0,-102.0,323.0,170.0,-1170.0,-117.0,2
1287,37.0,-291.0,-27.0,402.0,-70.0,277.0,157.0,-1172.0,-81.0,2
1288,37.0,-287.0,-18.0,443.0,-54.0,237.0,148.0,-1152.0,-75.0,2
1289,30.0,-281.0,-24.0,502.0,-52.0,199.0,127.0,-1131.0,-86.0,2
1290,25.0,-274.0,-34.0,566.0,-59.0,152.0,117.0,-1102.0,-110.0,2
1291,13.0,-260.0,-45.0,625.0,-80.0,95.0,78.0,-1071.0,-138.0,2
1292,5.0,-251.0,-46.0,657.0,-120.0,46.0,50.0,-1026.0,-156.0,2
1293,8.0,-247.0,-56.0,655.0,-178.0,-1.0,41.0,-1005.0,-199.0,2
1294,0.0,-244.0,-60.0,607.0,-226.0,-44.0,16.0,-1001.0,-226.0,2
1295,-14.0,-248.0,-56.0,523.0,-256.0,-84.0,-36.0,-1006.0,-206.0,2
1296,-20.0,-252.0,-39.0,442.0,-287.0,-124.0,-56.0,-1023.0,-145.0,2
1297,-24.0,-253.0,-28.0,387.0,-336.0,-161.0,-67.0,-1044.0,-104.0,2
1298,-23.0,-257.0,-20.0,350.0,-396.0,-196.0,-71.0,-1059.0,-58.0,2
1299,-18.0,-256.0,-12.0,335.0,-461.0,-227.0,-59.0,-1058.0,-32.0,2
1300,-10.0,-256.0,-1.0,346.0,-525.0,-263.0,-28.0,-1043.0,5.0,2
1301,-4.0,-253.0,-3.0,373.0,-588.0,-305.0,1.0,-1029.0,-1.0,2
1302,2.0,-250.0,-10.0,387.0,-637.0,-350.0,20.0,-1021.0,-22.0,2
1303,2.0,-251.0,-11.0,397.0,-678.0,-397.0,24.0,-998.0,-28.0,2
1304,1.0,-243.0,-14.0,408.0,-719.0,-437.0,14.0,-979.0,-44.0,2
1305,-1.0,-231.0,-20.0,426.0,-757.0,-463.0,5.0,-954.0,-63.0,2
1306,-1.0,-227.0,-27.0,445.0,-793.0,-475.0,2.0,-929.0,-85.0,2
1307,-4.0,-215.0,-37.0,457.0,-820.0,-485.0,-13.0,-895.0,-116.0,2
1308,-5.0,-211.0,-41.0,437.0,-833.0,-490.0,-25.0,-868.0,-146.0,2
1309,-12.0,-202.0,-42.0,376.0,-831.0,-500.0,-55.0,-844.0,-154.0,2
1310,-23.0,-197.0,-36.0,299.0,-828.0,-512.0,-86.0,-808.0,-119.0,2
1311,-31.0,-192.0,-22.0,243.0,-835.0,-520.0,-102.0,-784.0,-61.0,2
1312,-34.0,-185.0,-15.0,231.0,-861.0,-517.0,-128.0,-763.0,-51.0,2
1313,-33.0,-184.0,-19.0,215.0,-894.0,-505.0,-122.0,-758.0,-57.0,2
1314,-33.0,-183.0,-14.0,171.0,-922.0,-494.0,-122.0,-755.0,-33.0,2
1315,-30.0,-180.0,-11.0,125.0,-952.0,-485.0,-111.0,-747.0,-28.0,2
1316,-20.0,-182.0,-10.0,78.0,-992.0,-475.0,-72.0,-759.0,-6.0,2
1317,-16.0,-186.0,0.0,38.0,-1032.0,-468.0,-38.0,-765.0,-15.0,2
1318,0.0,-187.0,-4.0,7.0,-1066.0,-470.0,2.0,-773.0,-11.0,2
1319,6.0,-190.0,-10.0,-12.0,-1091.0,-474.0,30.0,-775.0,-12.0,2
1320,18.0,-193.0,-10.0,-31.0,-1103.0,-475.0,80.0,-791.0,-18.0,2
1321,28.0,-196.0,-4.0,-42.0,-1101.0,-478.0,108.0,-801.0,-9.0,2
1322,36.0,-198.0,-6.0,-35.0,-1097.0,-481.0,140.0,-807.0,-16.0,2
1323,35.0,-195.0,-1.0,-23.0,-1083.0,-483.0,134.0,-800.0,1.0,2
1324,43.0,-194.0,-9.0,19.0,-1056.0,-468.0,166.0,-800.0,-20.0,2
1325,44.0,-193.0,-10.0,39.0,-1028.0,-450.0,172.0,-791.0,-21.0,2
1326,50.0,-194.0,-12.0,34.0,-996.0,-421.0,187.0,-784.0,-30.0,2
1327,55.0,-192.0,-10.0,2.0,-961.0,-395.0,201.0,-785.0,-39.0,2
1328,57.0,-190.0,-17.0,-54.0,-928.0,-381.0,215.0,-788.0,-32.0,2
1329,57.0,-194.0,-6.0,-117.0,-891.0,-366.0,223.0,-793.0,-3.0,2
1330,64.0,-196.0,1.0,-152.0,-842.0,-351.0,241.0,-804.0,28.0,2
1331,64.0,-197.0,1.0,-149.0,-787.0,-337.0,243.0,-812.0,31.0,2
1332,63.0,-201.0,4.0,-139.0,-738.0,-328.0,236.0,-819.0,46.0,2
1333,63.0,-203.0,10.0,-135.0,-690.0,-310.0,249.0,-828.0,47.0,2
1334,66.0,-206.0,9.0,-136.0,-653.0,-290.0,266.0,-843.0,61.0,2
1335,70.0,-208.0,10.0,-137.0,-629.0,-269.0,273.0,-846.0,72.0,2
1336,74.0,-214.0,19.0,-136.0,-607.0,-246.0,281.0,-853.0,80.0,2
1337,74.0,-214.0,19.0,-127.0,-577.0,-226.0,284.0,-864.0,98.0,2
1338,68.0,-218.0,25.0,-100.0,-540.0,-201.0,272.0,-871.0,118.0,2
1339,68.0,-216.0,22.0,-44.0,-512.0,-170.0,264.0,-878.0,117.0,2
1340,65.0,-215.0,17.0,-2.0,-493.0,-137.0,252.0,-881.0,86.0,2
1341,56.0,-212.0,25.0,11.0,-466.0,-109.0,211.0,-869.0,105.0,2
1342,42.0,-212.0,31.0,19.0,-441.0,-76.0,178.0,-862.0,132.0,2
1343,34.0,-212.0,35.0,21.0,-434.0,-47.0,139.0,-862.0,157.0,2
1344,26.0,-212.0,48.0,13.0,-439.0,-28.0,98.0,-865.0,191.0,2
1345,15.0,-210.0,52.0,3.0,-449.0,-19.0,63.0,-864.0,218.0,2
1346,4.0,-210.0,58.0,-3.0,-459.0,-12.0,25.0,-862.0,242.0,2
1347,0.0,-213.0,53.0,-9.0,-473.0,-5.0,-3.0,-868.0,256.0,2
1348,-4.0,-213.0,54.0,-12.0,-488.0,0.0,-32.0,-877.0,227.0,2
1349,-14.0,-216.0,48.0,-19.0,-506.0,8.0,-50.0,-888.0,204.0,2
1350,-20.0,-221.0,41.0,-26.0,-522.0,21.0,-79.0,-908.0,175.0,2
1351,-20.0,-228.0,34.0,-26.0,-537.0,37.0,-99.0,-923.0,158.0,2
1352,-25.0,-226.0,30.0,-16.0,-552.0,51.0,-97.0,-932.0,143.0,2
1353,-25.0,-230.0,27.0,4.0,-565.0,63.0,-94.0,-948.0,123.0,2
1354,-19.0,-231.0,24.0,30.0,-581.0,75.0,-77.0,-940.0,111.0,2
1355,-20.0,-230.0,19.0,49.0,-602.0,86.0,-62.0,-943.0,102.0,2
1356,-14.0,-232.0,23.0,57.0,-629.0,97.0,-48.0,-943.0,99.0,2
1357,-9.0,-231.0,20.0,56.0,-663.0,112.0,-26.0,-953.0,87.0,2
1358,0.0,-233.0,13.0,42.0,-696.0,127.0,-2.0,-956.0,80.0,2
1359,2.0,-235.0,9.0,19.0,-725.0,140.0,20.0,-969.0,67.0,2
1360,8.0,-244.0,14.0,-13.0,-754.0,148.0,36.0,-997.0,70.0,2
1361,-13.0,-256.0,23.0,-46.0,-781.0,153.0,-31.0,-1027.0,91.0,2
1362,11.0,-271.0,14.0,-74.0,-797.0,166.0,37.0,-1107.0,83.0,2
1363,4.0,-278.0,33.0,-74.0,-815.0,160.0,28.0,-1143.0,153.0,2
1364,13.0,-288.0,31.0,-86.0,-843.0,157.0,61.0,-1170.0,157.0,2
1365,22.0,-297.0,21.0,-103.0,-875.0,155.0,89.0,-1201.0,118.0,2
1366,18.0,-302.0,6.0,-110.0,-893.0,128.0,88.0,-1229.0,67.0,2
1367,22.0,-309.0,0.0,-105.0,-890.0,96.0,79.0,-1252.0,33.0,2
1368,25.0,-316.0,1.0,-93.0,-887.0,58.0,95.0,-1281.0,35.0,2
1369,33.0,-320.0,7.0,-77.0,-889.0,26.0,124.0,-1302.0,63.0,2
1370,50.0,-324.0,19.0,-50.0,-884.0,-2.0,168.0,-1311.0,98.0,2
1371,56.0,-323.0,28.0,-21.0,-867.0,-36.0,207.0,-1315.0,137.0,2
1372,60.0,-322.0,28.0,8.0,-844.0,-72.0,236.0,-1313.0,139.0,2
1373,63.0,-318.0,32.0,16.0,-827.0,-108.0,250.0,-1297.0,144.0,2
1374,66.0,-314.0,27.0,7.0,-819.0,-146.0,257.0,-1282.0,146.0,2
1375,67.0,-309.0,27.0,-19.0,-817.0,-182.0,266.0,-1255.0,140.0,2
1376,73.0,-306.0,31.0,-53.0,-815.0,-211.0,286.0,-1248.0,146.0,2
1377,74.0,-307.0,28.0,-80.0,-804.0,-235.0,283.0,-1249.0,142.0,2
1378,70.0,-311.0,25.0,-100.0,-784.0,-255.0,284.0,-1253.0,131.0,2
1379,69.0,-316.0,24.0,-116.0,-757.0,-270.0,271.0,-1292.0,123.0,2
1380,65.0,-325.0,24.0,-128.0,-728.0,-290.0,255.0,-1320.0,120.0,2
1381,58.0,-330.0,27.0,-137.0,-711.0,-319.0,223.0,-1350.0,122.0,2
1382,54.0,-338.0,31.0,-148.0,-708.0,-354.0,204.0,-1375.0,143.0,2
1383,53.0,-347.0,36.0,-152.0,-716.0,-388.0,201.0,-1412.0,161.0,2
1384,57.0,-350.0,39.0,-131.0,-716.0,-425.0,219.0,-1431.0,171.0,2
1385,71.0,-360.0,27.0,-60.0,-703.0,-451.0,272.0,-1444.0,155.0,2
1386,83.0,-354.0,19.0,30.0,-673.0,-472.0,325.0,-1434.0,102.0,2
1387,89.0,-349.0,12.0,124.0,-629.0,-483.0,350.0,-1417.0,79.0,2
1388,90.0,-343.0,7.0,235.0,-590.0,-478.0,361.0,-1394.0,49.0,2
1389,83.0,-333.0,1.0,361.0,-552.0,-458.0,328.0,-1359.0,29.0,2
1390,69.0,-316.0,-5.0,502.0,-516.0,-423.0,286.0,-1289.0,9.0,2
1391,54.0,-289.0,-14.0,649.0,-474.0,-368.0,226.0,-1168.0,-34.0,2
1392,42.0,-268.0,-32.0,774.0,-435.0,-298.0,157.0,-1076.0,-115.0,2
1393,31.0,-246.0,-57.0,848.0,-402.0,-221.0,119.0,-989.0,-217.0,2
1394,22.0,-226.0,-88.0,872.0,-385.0,-145.0,93.0,-931.0,-320.0,2
1395,19.0,-213.0,-109.0,852.0,-380.0,-94.0,91.0,-881.0,-410.0,2
1396,25.0,-209.0,-130.0,787.0,-379.0,-72.0,107.0,-863.0,-501.0,2
1397,26.0,-213.0,-137.0,685.0,-370.0,-82.0,112.0,-872.0,-558.0,2
1398,21.0,-214.0,-148.0,558.0,-353.0,-113.0,109.0,-897.0,-585.0,2
1399,22.0,-224.0,-146.0,420.0,-332.0,-158.0,102.0,-941.0,-563.0,2
1400,25.0,-237.0,-135.0,281.0,-318.0,-206.0,104.0,-976.0,-534.0,2
1401,30.0,-253.0,-120.0,135.0,-295.0,-244.0,112.0,-1039.0,-473.0,2
1402,31.0,-262.0,-100.0,0.0,-253.0,-270.0,133.0,-1095.0,-398.0,2
1403,36.0,-283.0,-82.0,-112.0,-196.0,-278.0,151.0,-1163.0,-304.0,2
1404,34.0,-303.0,-54.0,-197.0,-129.0,-277.0,131.0,-1231.0,-200.0,2
1405,24.0,-323.0,-32.0,-252.0,-63.0,-264.0,107.0,-1306.0,-101.0,2
1406,19.0,-334.0,-2.0,-274.0,-17.0,-235.0,84.0,-1344.0,-22.0,2
1407,11.0,-334.0,1.0,-245.0,9.0,-188.0,54.0,-1373.0,42.0,2
1408,6.0,-337.0,8.0,-164.0,28.0,-124.0,36.0,-1373.0,62.0,2
1409,3.0,-333.0,14.0,-48.0,49.0,-44.0,26.0,-1361.0,72.0,2
1410,1.0,-326.0,8.0,69.0,68.0,34.0,7.0,-1325.0,54.0,2
1411,0.0,-317.0,4.0,174.0,78.0,111.0,-2.0,-1285.0,49.0,2
1412,0.0,-311.0,0.0,275.0,86.0,178.0,-3.0,-1221.0,26.0,2
1413,0.0,-297.0,-6.0,358.0,100.0,238.0,-2.0,-1189.0,7.0,2
1414,4.0,-282.0,-15.0,429.0,129.0,289.0,11.0,-1149.0,-38.0,2
1415,3.0,-270.0,-17.0,468.0,167.0,330.0,14.0,-1094.0,-39.0,2
1416,4.0,-252.0,-12.0,486.0,215.0,369.0,19.0,-1032.0,-31.0,2
1417,2.0,-240.0,-12.0,505.0,264.0,405.0,27.0,-987.0,-34.0,2
1418,6.0,-229.0,-15.0,513.0,300.0,437.0,36.0,-938.0,-52.0,2
1419,14.0,-218.0,-25.0,491.0,323.0,465.0,46.0,-903.0,-80.0,2
1420,12.0,-210.0,-33.0,438.0,341.0,494.0,50.0,-875.0,-111.0,2
1421,14.0,-212.0,-30.0,361.0,358.0,523.0,52.0,-866.0,-93.0,2
1422,12.0,-209.0,-31.0,305.0,379.0,559.0,66.0,-868.0,-98.0,2
1423,23.0,-213.0,-33.0,257.0,420.0,585.0,90.0,-870.0,-112.0,2
1424,23.0,-211.0,-26.0,214.0,466.0,595.0,101.0,-861.0,-78.0,2
1425,28.0,-212.0,-31.0,188.0,502.0,594.0,114.0,-872.0,-99.0,2
1426,22.0,-215.0,-27.0,138.0,528.0,587.0,106.0,-878.0,-104.0,2
1427,23.0,-208.0,-6.0,99.0,520.0,571.0,93.0,-843.0,-13.0,2
1428,30.0,-202.0,-23.0,122.0,506.0,543.0,117.0,-834.0,-74.0,2
1429,29.0,-195.0,-13.0,118.0,524.0,516.0,106.0,-805.0,-29.0,2
1430,23.0,-186.0,-14.0,128.0,558.0,502.0,84.0,-766.0,-37.0,2
1431,13.0,-181.0,-12.0,132.0,591.0,502.0,66.0,-737.0,-30.0,2
1432,15.0,-173.0,-11.0,125.0,614.0,511.0,61.0,-718.0,-26.0,2
1433,10.0,-171.0,-8.0,118.0,631.0,520.0,47.0,-696.0,-25.0,2
1434,0.0,-169.0,-12.0,102.0,636.0,526.0,10.0,-696.0,-32.0,2
1435,-4.0,-166.0,-12.0,73.0,636.0,527.0,-13.0,-689.0,-36.0,2
1436,-4.0,-163.0,-9.0,42.0,636.0,532.0,-41.0,-673.0,-35.0,2
1437,-14.0,-166.0,-14.0,21.0,636.0,536.0,-63.0,-681.0,-35.0,2
1438,-20.0,-166.0,-14.0,6.0,631.0,538.0,-75.0,-679.0,-49.0,2
1439,-26.0,-168.0,-24.0,-21.0,624.0,532.0,-100.0,-706.0,-78.0,2
1440,-32.0,-178.0,-15.0,-93.0,622.0,527.0,-123.0,-727.0,-61.0,2
1441,-33.0,-186.0,6.0,-168.0,614.0,514.0,-119.0,-753.0,26.0,2
1442,-28.0,-183.0,10.0,-175.0,578.0,489.0,-119.0,-733.0,68.0,2
1443,-28.0,-174.0,4.0,-144.0,540.0,473.0,-105.0,-721.0,48.0,2
1444,-21.0,-181.0,0.0,-146.0,541.0,467.0,-87.0,-739.0,1.0,2
1445,-22.0,-185.0,4.0,-211.0,551.0,442.0,-82.0,-753.0,30.0,2
1446,-20.0,-190.0,8.0,-267.0,528.0,411.0,-69.0,-776.0,56.0,2
1447,-17.0,-195.0,7.0,-305.0,492.0,376.0,-63.0,-800.0,55.0,2
1448,-15.0,-197.0,5.0,-336.0,470.0,343.0,-70.0,-814.0,45.0,2
1449,-16.0,-200.0,10.0,-366.0,462.0,314.0,-57.0,-824.0,56.0,2
1450,-18.0,-205.0,13.0,-384.0,454.0,285.0,-66.0,-842.0,71.0,2
1451,-20.0,-211.0,17.0,-385.0,436.0,258.0,-80.0,-850.0,84.0,2
1452,-23.0,-212.0,21.0,-373.0,415.0,233.0,-81.0,-857.0,78.0,2
1453,-26.0,-211.0,17.0,-351.0,402.0,210.0,-96.0,-869.0,92.0,2
1454,-28.0,-215.0,18.0,-324.0,389.0,188.0,-104.0,-874.0,106.0,2
1455,-32.0,-216.0,20.0,-296.0,373.0,169.0,-119.0,-883.0,113.0,2
1456,-30.0,-216.0,23.0,-269.0,356.0,151.0,-122.0,-891.0,133.0,2
1457,-32.0,-219.0,28.0,-243.0,341.0,129.0,-122.0,-895.0,139.0,2
1458,-35.0,-220.0,32.0,-225.0,328.0,105.0,-134.0,-891.0,155.0,2
1459,-33.0,-217.0,39.0,-201.0,315.0,79.0,-135.0,-883.0,169.0,2
1460,-32.0,-215.0,39.0,-165.0,305.0,55.0,-125.0,-873.0,190.0,2
1461,-28.0,-213.0,46.0,-125.0,295.0,29.0,-126.0,-867.0,191.0,2
1462,-32.0,-210.0,40.0,-94.0,285.0,-2.0,-125.0,-853.0,204.0,2
1463,-31.0,-205.0,48.0,-75.0,271.0,-36.0,-113.0,-846.0,201.0,2
1464,-24.0,-204.0,47.0,-64.0,257.0,-65.0,-99.0,-837.0,197.0,2
1465,-21.0,-206.0,46.0,-61.0,247.0,-94.0,-83.0,-845.0,194.0,2
1466,-21.0,-204.0,47.0,-63.0,236.0,-123.0,-74.0,-849.0,192.0,2
1467,-20.0,-211.0,43.0,-66.0,232.0,-148.0,-79.0,-871.0,191.0,2
1468,-17.0,-215.0,44.0,-76.0,233.0,-174.0,-76.0,-882.0,197.0,2
1469,-18.0,-222.0,42.0,-85.0,241.0,-193.0,-71.0,-910.0,191.0,2
1470,-24.0,-225.0,34.0,-90.0,249.0,-209.0,-80.0,-932.0,163.0,2
1471,-25.0,-231.0,29.0,-94.0,258.0,-216.0,-91.0,-949.0,140.0,2
1472,-30.0,-235.0,21.0,-100.0,275.0,-223.0,-114.0,-966.0,102.0,2
1473,-32.0,-242.0,9.0,-112.0,296.0,-227.0,-124.0,-993.0,62.0,2
1474,-28.0,-249.0,4.0,-123.0,308.0,-224.0,-116.0,-1022.0,38.0,2
1475,-18.0,-261.0,1.0,-132.0,307.0,-211.0,-77.0,-1083.0,26.0,2
1476,0.0,-277.0,9.0,-150.0,310.0,-187.0,-4.0,-1133.0,59.0,2
1477,3.0,-288.0,15.0,-177.0,316.0,-160.0,14.0,-1188.0,84.0,2
1478,1.0,-304.0,21.0,-208.0,325.0,-125.0,0.0,-1244.0,114.0,2
1479,-10.0,-316.0,22.0,-245.0,334.0,-90.0,-48.0,-1296.0,104.0,2
1480,-31.0,-327.0,10.0,-286.0,340.0,-53.0,-115.0,-1340.0,79.0,2
1481,-50.0,-340.0,8.0,-313.0,329.0,-1.0,-178.0,-1383.0,59.0,2
1482,-62.0,-346.0,8.0,-315.0,308.0,67.0,-248.0,-1411.0,63.0,2
1483,-78.0,-346.0,14.0,-292.0,282.0,138.0,-297.0,-1418.0,86.0,2
1484,-79.0,-343.0,25.0,-239.0,248.0,203.0,-317.0,-1407.0,126.0,2
1485,-75.0,-336.0,41.0,-163.0,215.0,262.0,-303.0,-1376.0,175.0,2
1486,-61.0,-327.0,52.0,-78.0,191.0,306.0,-246.0,-1344.0,222.0,2
1487,-44.0,-324.0,61.0,-8.0,179.0,334.0,-183.0,-1321.0,267.0,2
1488,-35.0,-319.0,69.0,36.0,183.0,349.0,-146.0,-1303.0,293.0,2
1489,-29.0,-309.0,67.0,63.0,199.0,344.0,-113.0,-1275.0,304.0,2
1490,-26.0,-308.0,62.0,81.0,221.0,326.0,-105.0,-1271.0,268.0,2
1491,-12.0,-311.0,50.0,63.0,240.0,317.0,-68.0,-1273.0,246.0,2
1492,-6.0,-323.0,46.0,8.0,265.0,309.0,-36.0,-1318.0,206.0,2
1493,-1.0,-331.0,50.0,-64.0,310.0,309.0,-28.0,-1363.0,210.0,2
1494,-5.0,-347.0,62.0,-112.0,369.0,326.0,-31.0,-1409.0,260.0,2
1495,-14.0,-355.0,70.0,-119.0,430.0,348.0,-54.0,-1440.0,295.0,2
1496,-27.0,-356.0,66.0,-87.0,478.0,370.0,-94.0,-1453.0,296.0,2
1497,-32.0,-357.0,55.0,-26.0,513.0,384.0,-130.0,-1442.0,250.0,2
1498,-50.0,-350.0,41.0,48.0,531.0,392.0,-189.0,-1427.0,178.0,2
1499,-62.0,-347.0,24.0,123.0,542.0,397.0,-242.0,-1410.0,113.0,2
1500,-77.0,-339.0,4.0,194.0,531.0,397.0,-298.0,-1386.0,54.0,2
1501,-86.0,-333.0,0.0,263.0,504.0,380.0,-331.0,-1357.0,22.0,2
1502,-93.0,-325.0,-6.0,341.0,461.0,346.0,-364.0,-1306.0,5.0,2
1503,-100.0,-305.0,-16.0,419.0,409.0,296.0,-374.0,-1235.0,-27.0,2
1504,-96.0,-287.0,-25.0,479.0,353.0,259.0,-377.0,-1174.0,-73.0,2
1505,-103.0,-274.0,-39.0,504.0,299.0,227.0,-394.0,-1132.0,-133.0,2
1506,-105.0,-265.0,-48.0,493.0,237.0,204.0,-394.0,-1089.0,-178.0,2
1507,-105.0,-258.0,-66.0,464.0,160.0,185.0,-395.0,-1066.0,-249.0,2
1508,-99.0,-257.0,-89.0,428.0,73.0,175.0,-387.0,-1058.0,-329.0,2
1509,-97.0,-254.0,-102.0,380.0,-15.0,181.0,-366.0,-1057.0,-391.0,2
1510,-84.0,-261.0,-111.0,325.0,-94.0,198.0,-325.0,-1073.0,-434.0,2
1511,-69.0,-269.0,-115.0,268.0,-160.0,219.0,-252.0,-1109.0,-449.0,2
1512,-41.0,-280.0,-115.0,225.0,-209.0,235.0,-141.0,-1146.0,-429.0,2
1513,-12.0,-291.0,-98.0,219.0,-235.0,239.0,-41.0,-1175.0,-377.0,2
1514,17.0,-296.0,-81.0,261.0,-232.0,238.0,77.0,-1191.0,-315.0,2
1515,39.0,-296.0,-66.0,341.0,-218.0,225.0,137.0,-1191.0,-258.0,2
1516,41.0,-293.0,-61.0,436.0,-198.0,208.0,176.0,-1184.0,-217.0,2
1517,50.0,-287.0,-59.0,533.0,-181.0,185.0,200.0,-1152.0,-195.0,2
1518,45.0,-274.0,-56.0,609.0,-179.0,151.0,187.0,-1107.0,-196.0,2
1519,34.0,-259.0,-54.0,652.0,-179.0,101.0,138.0,-1060.0,-208.0,2
1520,18.0,-247.0,-66.0,666.0,-180.0,45.0,81.0,-1012.0,-237.0,2
1521,5.0,-239.0,-67.0,657.0,-183.0,-13.0,33.0,-979.0,-258.0,2
1522,-6.0,-232.0,-70.0,617.0,-201.0,-66.0,-17.0,-960.0,-276.0,2
1523,-19.0,-230.0,-73.0,551.0,-232.0,-107.0,-68.0,-948.0,-274.0,2
1524,-28.0,-229.0,-72.0,465.0,-278.0,-138.0,-93.0,-949.0,-276.0,2
1525,-38.0,-233.0,-69.0,370.0,-327.0,-164.0,-132.0,-962.0,-268.0,2
1526,-44.0,-235.0,-63.0,269.0,-377.0,-187.0,-156.0,-969.0,-222.0,2
1527,-54.0,-240.0,-55.0,211.0,-424.0,-207.0,-195.0,-989.0,-196.0,2
1528,-48.0,-250.0,-37.0,158.0,-475.0,-221.0,-169.0,-1015.0,-130.0,2
1529,-32.0,-253.0,-21.0,137.0,-527.0,-237.0,-125.0,-1028.0,-71.0,2
1530,-22.0,-260.0,-7.0,150.0,-570.0,-263.0,-86.0,-1045.0,-22.0,2
1531,-19.0,-259.0,-7.0,175.0,-601.0,-299.0,-62.0,-1060.0,-2.0,2
1532,-12.0,-259.0,-7.0,185.0,-635.0,-341.0,-37.0,-1059.0,-15.0,2
1533,-4.0,-259.0,-12.0,173.0,-675.0,-392.0,-3.0,-1061.0,-32.0,2
1534,1.0,-261.0,-25.0,158.0,-717.0,-447.0,20.0,-1068.0,-75.0,2
1535,6.0,-260.0,-35.0,144.0,-753.0,-502.0,35.0,-1071.0,-109.0,2
1536,8.0,-261.0,-43.0,135.0,-777.0,-550.0,36.0,-1065.0,-147.0,2
1537,5.0,-259.0,-43.0,140.0,-793.0,-587.0,45.0,-1047.0,-144.0,2
1538,5.0,-251.0,-45.0,168.0,-799.0,-619.0,40.0,-1025.0,-157.0,2
1539,8.0,-244.0,-45.0,174.0,-802.0,-641.0,35.0,-996.0,-155.0,2
1540,6.0,-233.0,-46.0,157.0,-800.0,-653.0,35.0,-954.0,-153.0,2
1541,5.0,-226.0,-32.0,115.0,-792.0,-657.0,34.0,-935.0,-111.0,2
1542,7.0,-219.0,-27.0,66.0,-778.0,-661.0,29.0,-912.0,-80.0,2
1543,3.0,-215.0,-16.0,36.0,-760.0,-662.0,9.0,-887.0,-48.0,2
1544,2.0,-213.0,-10.0,31.0,-741.0,-658.0,17.0,-871.0,-34.0,2
1545,2.0,-210.0,0.0,48.0,-733.0,-655.0,21.0,-854.0,0.0,2
1546,1.0,-203.0,0.0,88.0,-735.0,-654.0,12.0,-830.0,1.0,2
1547,7.0,-199.0,3.0,128.0,-745.0,-643.0,36.0,-806.0,38.0,2
1548,4.0,-191.0,-3.0,171.0,-764.0,-628.0,24.0,-788.0,-8.0,2
1549,3.0,-187.0,-17.0,165.0,-785.0,-613.0,28.0,-770.0,-42.0,2
1550,2.0,-180.0,-22.0,100.0,-795.0,-604.0,24.0,-753.0,-85.0,2
1551,4.0,-181.0,-22.0,5.0,-802.0,-593.0,29.0,-754.0,-48.0,2
1552,9.0,-185.0,-13.0,-66.0,-817.0,-582.0,47.0,-775.0,-38.0,2
1553,15.0,-190.0,-5.0,-130.0,-822.0,-585.0,58.0,-778.0,-8.0,2
1554,16.0,-191.0,-3.0,-166.0,-811.0,-588.0,61.0,-786.0,-6.0,2
1555,40.0,-192.0,8.0,-198.0,-795.0,-584.0,82.0,-791.0,13.0,2
1556,22.0,-196.0,0.0,-228.0,-776.0,-568.0,91.0,-803.0,21.0,2
1557,26.0,-197.0,4.0,-257.0,-760.0,-545.0,107.0,-816.0,27.0,2
1558,26.0,-199.0,6.0,-274.0,-746.0,-532.0,101.0,-820.0,35.0,2
1559,29.0,-200.0,9.0,-287.0,-734.0,-516.0,114.0,-822.0,50.0,2
1560,36.0,-199.0,13.0,-288.0,-718.0,-495.0,133.0,-818.0,81.0,2
1561,38.0,-202.0,14.0,-263.0,-704.0,-471.0,145.0,-814.0,75.0,2
1562,40.0,-201.0,8.0,-225.0,-690.0,-435.0,152.0,-822.0,59.0,2
1563,43.0,-200.0,4.0,-206.0,-668.0,-405.0,164.0,-814.0,39.0,2
1564,40.0,-195.0,3.0,-205.0,-642.0,-381.0,153.0,-800.0,33.0,2
1565,43.0,-187.0,16.0,-207.0,-619.0,-352.0,162.0,-793.0,42.0,2
1566,43.0,-195.0,0.0,-198.0,-600.0,-326.0,173.0,-797.0,34.0,2
1567,45.0,-193.0,-3.0,-201.0,-581.0,-319.0,173.0,-792.0,16.0,2
1568,42.0,-193.0,1.0,-225.0,-548.0,-306.0,157.0,-790.0,24.0,2
1569,40.0,-197.0,7.0,-255.0,-509.0,-278.0,155.0,-806.0,50.0,2
1570,42.0,-205.0,13.0,-267.0,-487.0,-251.0,157.0,-823.0,74.0,2
1571,41.0,-203.0,21.0,-265.0,-479.0,-234.0,150.0,-831.0,109.0,2
1572,46.0,-203.0,36.0,-234.0,-451.0,-216.0,161.0,-836.0,155.0,2
1573,36.0,-205.0,44.0,-173.0,-418.0,-189.0,140.0,-826.0,204.0,2
1574,41.0,-201.0,39.0,-92.0,-396.0,-146.0,146.0,-822.0,208.0,2
1575,40.0,-197.0,42.0,-61.0,-378.0,-111.0,143.0,-813.0,183.0,2
1576,40.0,-194.0,50.0,-77.0,-357.0,-82.0,148.0,-804.0,210.0,2
1577,39.0,-193.0,55.0,-93.0,-343.0,-52.0,150.0,-795.0,238.0,2
1578,37.0,-195.0,56.0,-91.0,-340.0,-25.0,145.0,-794.0,252.0,2
1579,34.0,-192.0,60.0,-81.0,-338.0,2.0,144.0,-803.0,262.0,2
1580,38.0,-198.0,60.0,-65.0,-337.0,32.0,141.0,-813.0,265.0,2
1581,37.0,-206.0,63.0,-49.0,-335.0,65.0,140.0,-828.0,269.0,2
1582,34.0,-208.0,63.0,-25.0,-330.0,100.0,132.0,-859.0,285.0,2
1583,30.0,-215.0,62.0,4.0,-323.0,133.0,119.0,-883.0,273.0,2
1584,29.0,-224.0,61.0,35.0,-317.0,167.0,113.0,-917.0,268.0,2
1585,28.0,-229.0,58.0,71.0,-314.0,197.0,107.0,-935.0,257.0,2
1586,30.0,-235.0,55.0,102.0,-312.0,221.0,100.0,-951.0,247.0,2
1587,26.0,-237.0,47.0,124.0,-310.0,243.0,94.0,-966.0,217.0,2
1588,25.0,-237.0,38.0,135.0,-307.0,259.0,97.0,-976.0,168.0,2
1589,24.0,-243.0,25.0,134.0,-303.0,268.0,89.0,-994.0,121.0,2
1590,21.0,-249.0,12.0,121.0,-299.0,273.0,91.0,-1009.0,68.0,2
1591,19.0,-252.0,5.0,99.0,-291.0,276.0,90.0,-1028.0,42.0,2
1592,21.0,-258.0,-1.0,67.0,-286.0,271.0,83.0,-1069.0,21.0,2
1593,17.0,-268.0,0.0,27.0,-281.0,258.0,74.0,-1104.0,25.0,2
1594,12.0,-280.0,5.0,-13.0,-272.0,240.0,58.0,-1142.0,46.0,2
1595,21.0,-292.0,12.0,-52.0,-259.0,218.0,85.0,-1189.0,56.0,2
1596,30.0,-302.0,24.0,-89.0,-248.0,181.0,115.0,-1225.0,99.0,2
1597,48.0,-311.0,22.0,-134.0,-241.0,135.0,172.0,-1272.0,118.0,2
1598,58.0,-318.0,18.0,-175.0,-226.0,69.0,213.0,-1293.0,103.0,2
1599,65.0,-322.0,13.0,-200.0,-199.0,-19.0,236.0,-1321.0,89.0,2
1600,70.0,-326.0,20.0,-208.0,-165.0,-111.0,264.0,-1328.0,100.0,2
1601,73.0,-326.0,23.0,-201.0,-130.0,-201.0,282.0,-1328.0,130.0,2
1602,70.0,-324.0,36.0,-180.0,-93.0,-278.0,285.0,-1319.0,169.0,2
1603,64.0,-319.0,45.0,-143.0,-55.0,-343.0,268.0,-1298.0,220.0,2
1604,56.0,-313.0,57.0,-90.0,-22.0,-387.0,228.0,-1265.0,253.0,2
1605,45.0,-302.0,64.0,-35.0,-2.0,-414.0,171.0,-1231.0,272.0,2
1606,34.0,-298.0,68.0,11.0,4.0,-427.0,128.0,-1210.0,299.0,2
1607,24.0,-296.0,74.0,42.0,-7.0,-423.0,87.0,-1191.0,336.0,2
1608,11.0,-290.0,86.0,56.0,-30.0,-413.0,50.0,-1188.0,370.0,2
1609,8.0,-287.0,89.0,50.0,-60.0,-397.0,41.0,-1182.0,388.0,2
1610,7.0,-287.0,88.0,41.0,-98.0,-386.0,26.0,-1171.0,375.0,2
1611,0.0,-285.0,83.0,22.0,-142.0,-388.0,14.0,-1177.0,364.0,2
1612,3.0,-289.0,80.0,-11.0,-213.0,-397.0,29.0,-1182.0,349.0,2
1613,17.0,-296.0,68.0,-44.0,-298.0,-413.0,75.0,-1209.0,314.0,2
1614,38.0,-307.0,63.0,-62.0,-364.0,-434.0,152.0,-1234.0,283.0,2
1615,68.0,-313.0,51.0,-54.0,-397.0,-448.0,250.0,-1258.0,240.0,2
1616,88.0,-313.0,43.0,-14.0,-394.0,-446.0,344.0,-1278.0,197.0,2
1617,103.0,-314.0,25.0,52.0,-365.0,-435.0,406.0,-1280.0,139.0,2
1618,114.0,-319.0,10.0,125.0,-314.0,-420.0,439.0,-1281.0,72.0,2
1619,110.0,-314.0,3.0,191.0,-251.0,-412.0,435.0,-1273.0,37.0,2
1620,94.0,-309.0,-1.0,252.0,-178.0,-401.0,383.0,-1248.0,11.0,2
1621,81.0,-303.0,-9.0,313.0,-106.0,-386.0,321.0,-1216.0,-12.0,2
1622,65.0,-292.0,-20.0,380.0,-51.0,-356.0,263.0,-1180.0,-61.0,2
1623,57.0,-278.0,-50.0,434.0,-3.0,-314.0,211.0,-1136.0,-141.0,2
1624,42.0,-269.0,-70.0,464.0,34.0,-261.0,182.0,-1113.0,-226.0,2
1625,42.0,-266.0,-86.0,457.0,60.0,-216.0,164.0,-1093.0,-322.0,2
1626,36.0,-268.0,-106.0,423.0,79.0,-189.0,160.0,-1107.0,-398.0,2
1627,35.0,-275.0,-122.0,381.0,98.0,-182.0,156.0,-1140.0,-471.0,2
1628,36.0,-288.0,-131.0,337.0,125.0,-200.0,153.0,-1180.0,-510.0,2
1629,32.0,-303.0,-130.0,290.0,153.0,-240.0,135.0,-1225.0,-511.0,2
1630,29.0,-316.0,-136.0,248.0,176.0,-293.0,127.0,-1287.0,-474.0,2
1631,26.0,-323.0,-115.0,225.0,197.0,-353.0,114.0,-1332.0,-445.0,2
1632,19.0,-336.0,-105.0,221.0,223.0,-407.0,95.0,-1366.0,-385.0,2
1633,9.0,-345.0,-75.0,255.0,260.0,-439.0,51.0,-1385.0,-301.0,2
1634,0.0,-345.0,-62.0,335.0,303.0,-449.0,11.0,-1397.0,-221.0,2
1635,-3.0,-340.0,-50.0,425.0,338.0,-435.0,-18.0,-1398.0,-178.0,2
1636,-10.0,-340.0,-36.0,491.0,363.0,-406.0,-38.0,-1378.0,-128.0,2
1637,-10.0,-329.0,-26.0,542.0,385.0,-350.0,-29.0,-1337.0,-75.0,2
1638,-7.0,-316.0,-24.0,595.0,401.0,-267.0,-26.0,-1287.0,-68.0,2
1639,-6.0,-299.0,-34.0,639.0,420.0,-166.0,-16.0,-1220.0,-94.0,2
1640,-1.0,-286.0,-39.0,656.0,446.0,-48.0,-20.0,-1182.0,-126.0,2
1641,-6.0,-276.0,-47.0,648.0,476.0,70.0,-16.0,-1138.0,-154.0,2
1642,0.0,-270.0,-51.0,627.0,494.0,177.0,5.0,-1110.0,-179.0,2
1643,4.0,-269.0,-57.0,597.0,503.0,269.0,24.0,-1097.0,-198.0,2
1644,11.0,-264.0,-46.0,567.0,513.0,327.0,44.0,-1086.0,-185.0,2
1645,18.0,-263.0,-45.0,550.0,527.0,357.0,71.0,-1088.0,-146.0,2
1646,20.0,-261.0,-32.0,541.0,539.0,369.0,89.0,-1071.0,-102.0,2
1647,24.0,-253.0,-15.0,527.0,551.0,376.0,94.0,-1026.0,-37.0,2
1648,22.0,-243.0,-7.0,518.0,574.0,392.0,92.0,-997.0,-15.0,2
1649,20.0,-233.0,0.0,507.0,602.0,422.0,68.0,-964.0,21.0,2
1650,19.0,-232.0,-16.0,489.0,635.0,472.0,61.0,-950.0,-39.0,2
1651,11.0,-228.0,-17.0,431.0,678.0,528.0,45.0,-938.0,-50.0,2
1652,8.0,-225.0,-35.0,372.0,727.0,583.0,37.0,-930.0,-84.0,2
1653,3.0,-220.0,-34.0,316.0,776.0,631.0,24.0,-915.0,-108.0,2
1654,5.0,-210.0,-41.0,277.0,827.0,666.0,27.0,-884.0,-137.0,2
1655,5.0,-208.0,-52.0,235.0,877.0,692.0,31.0,-853.0,-174.0,2
1656,9.0,-200.0,-57.0,186.0,910.0,702.0,41.0,-821.0,-185.0,2
1657,15.0,-195.0,-51.0,152.0,923.0,707.0,57.0,-797.0,-174.0,2
1658,19.0,-185.0,-55.0,125.0,918.0,695.0,97.0,-767.0,-203.0,2
1659,29.0,-176.0,-47.0,73.0,901.0,678.0,108.0,-727.0,-159.0,2
1660,28.0,-167.0,-44.0,5.0,881.0,663.0,112.0,-706.0,-132.0,2
1661,29.0,-166.0,-31.0,-83.0,865.0,657.0,113.0,-679.0,-97.0,2
1662,26.0,-166.0,-20.0,-154.0,864.0,652.0,113.0,-686.0,-58.0,2
1663,21.0,-171.0,-17.0,-196.0,877.0,641.0,96.0,-701.0,-26.0,2
1664,14.0,-180.0,-2.0,-217.0,904.0,625.0,65.0,-725.0,-13.0,2
1665,9.0,-183.0,-2.0,-198.0,936.0,605.0,43.0,-743.0,22.0,2
1666,-2.0,-177.0,-5.0,-147.0,959.0,584.0,9.0,-731.0,-13.0,2
1667,-11.0,-176.0,-11.0,-110.0,956.0,577.0,-28.0,-728.0,-28.0,2
1668,-20.0,-176.0,-19.0,-96.0,942.0,580.0,-64.0,-726.0,-52.0,2
1669,-25.0,-170.0,-14.0,-107.0,924.0,584.0,-93.0,-707.0,-46.0,2
1670,-31.0,-167.0,-10.0,-118.0,900.0,585.0,-112.0,-690.0,-32.0,2
1671,-34.0,-164.0,-9.0,-129.0,870.0,586.0,-111.0,-683.0,-18.0,2
1672,-36.0,-161.0,-6.0,-154.0,839.0,577.0,-121.0,-684.0,-8.0,2
1673,-30.0,-169.0,-9.0,-207.0,811.0,559.0,-114.0,-712.0,-22.0,2
1674,-29.0,-181.0,-3.0,-304.0,780.0,537.0,-112.0,-753.0,9.0,2
1675,-27.0,-190.0,16.0,-391.0,740.0,508.0,-97.0,-774.0,82.0,2
1676,-27.0,-193.0,23.0,-404.0,696.0,480.0,-98.0,-788.0,110.0,2
1677,-22.0,-199.0,12.0,-384.0,666.0,464.0,-77.0,-832.0,62.0,2
1678,-25.0,-207.0,17.0,-415.0,652.0,430.0,-89.0,-863.0,72.0,2
1679,-30.0,-212.0,19.0,-441.0,630.0,386.0,-106.0,-864.0,98.0,2
1680,-31.0,-213.0,27.0,-419.0,596.0,356.0,-116.0,-873.0,116.0,2
1681,-36.0,-218.0,25.0,-365.0,560.0,327.0,-135.0,-882.0,116.0,2
1682,-39.0,-217.0,25.0,-307.0,522.0,292.0,-152.0,-880.0,116.0,2
1683,-46.0,-210.0,26.0,-266.0,484.0,257.0,-159.0,-866.0,128.0,2
1684,-39.0,-210.0,28.0,-236.0,446.0,229.0,-154.0,-866.0,124.0,2
1685,-37.0,-206.0,20.0,-219.0,408.0,201.0,-153.0,-851.0,110.0,2
1686,-39.0,-207.0,20.0,-217.0,370.0,177.0,-154.0,-841.0,103.0,2
1687,-38.0,-202.0,24.0,-222.0,337.0,156.0,-145.0,-841.0,99.0,2
1688,-35.0,-201.0,26.0,-226.0,309.0,134.0,-148.0,-839.0,101.0,2
1689,-36.0,-203.0,20.0,-226.0,282.0,118.0,-147.0,-826.0,115.0,2
1690,-38.0,-199.0,30.0,-216.0,256.0,104.0,-148.0,-827.0,147.0,2
1691,-37.0,-203.0,31.0,-190.0,231.0,92.0,-141.0,-834.0,144.0,2
1692,-35.0,-200.0,30.0,-173.0,201.0,76.0,-125.0,-833.0,146.0,2
1693,-29.0,-202.0,33.0,-179.0,171.0,56.0,-104.0,-841.0,159.0,2
1694,-23.0,-204.0,37.0,-191.0,148.0,29.0,-93.0,-849.0,168.0,2
1695,-18.0,-209.0,42.0,-206.0,136.0,-3.0,-70.0,-857.0,176.0,2
1696,-14.0,-212.0,41.0,-215.0,134.0,-31.0,-66.0,-875.0,175.0,2
1697,-14.0,-216.0,42.0,-217.0,141.0,-59.0,-51.0,-884.0,189.0,2
1698,-5.0,-220.0,48.0,-215.0,144.0,-87.0,-28.0,-910.0,209.0,2
1699,-1.0,-226.0,49.0,-205.0,148.0,-113.0,-16.0,-924.0,225.0,2
1700,-4.0,-229.0,55.0,-194.0,161.0,-132.0,-25.0,-936.0,231.0,2
1701,-3.0,-232.0,56.0,-181.0,172.0,-151.0,-24.0,-952.0,248.0,2
1702,-1.0,-241.0,57.0,-166.0,177.0,-164.0,-15.0,-968.0,250.0,2
1703,-2.0,-240.0,56.0,-147.0,188.0,-170.0,-24.0,-978.0,242.0,2
1704,-12.0,-242.0,52.0,-126.0,208.0,-173.0,-44.0,-991.0,226.0,2
1705,-16.0,-247.0,43.0,-109.0,235.0,-176.0,-61.0,-1000.0,195.0,2
1706,-19.0,-245.0,31.0,-97.0,255.0,-181.0,-69.0,-1004.0,136.0,2
1707,-13.0,-249.0,18.0,-96.0,267.0,-180.0,-58.0,-1009.0,94.0,2
1708,-8.0,-252.0,17.0,-115.0,281.0,-179.0,-27.0,-1028.0,86.0,2
1709,-2.0,-261.0,22.0,-143.0,301.0,-177.0,-15.0,-1063.0,86.0,2
1710,-1.0,-266.0,18.0,-173.0,322.0,-176.0,-7.0,-1099.0,89.0,2
1711,0.0,-280.0,17.0,-199.0,341.0,-174.0,-10.0,-1146.0,87.0,2
1712,-10.0,-288.0,10.0,-233.0,349.0,-167.0,-36.0,-1190.0,60.0,2
1713,-27.0,-304.0,6.0,-275.0,341.0,-146.0,-93.0,-1240.0,34.0,2
1714,-49.0,-322.0,6.0,-322.0,326.0,-113.0,-177.0,-1312.0,42.0,2
1715,-68.0,-335.0,12.0,-348.0,307.0,-63.0,-277.0,-1368.0,67.0,2
1716,-88.0,-348.0,23.0,-333.0,277.0,3.0,-346.0,-1404.0,102.0,2
1717,-94.0,-348.0,35.0,-285.0,242.0,78.0,-382.0,-1416.0,153.0,2
1718,-98.0,-348.0,52.0,-209.0,205.0,162.0,-388.0,-1406.0,217.0,2
1719,-89.0,-337.0,67.0,-115.0,181.0,244.0,-373.0,-1374.0,290.0,2
1720,-90.0,-325.0,70.0,-12.0,165.0,313.0,-350.0,-1320.0,319.0,2
1721,-75.0,-311.0,74.0,78.0,150.0,359.0,-303.0,-1262.0,312.0,2
1722,-55.0,-296.0,70.0,132.0,135.0,386.0,-234.0,-1208.0,302.0,2
1723,-45.0,-289.0,62.0,131.0,131.0,397.0,-180.0,-1192.0,274.0,2
1724,-37.0,-296.0,52.0,71.0,140.0,393.0,-149.0,-1207.0,233.0,2
1725,-30.0,-304.0,44.0,-33.0,153.0,386.0,-129.0,-1253.0,211.0,2
1726,-19.0,-325.0,44.0,-157.0,161.0,385.0,-93.0,-1340.0,197.0,2
1727,-13.0,-351.0,52.0,-282.0,174.0,396.0,-62.0,-1426.0,219.0,2
1728,-11.0,-378.0,68.0,-363.0,200.0,418.0,-55.0,-1509.0,265.0,2
1729,-16.0,-390.0,65.0,-371.0,225.0,439.0,-63.0,-1577.0,290.0,2
1730,-26.0,-398.0,63.0,-297.0,230.0,447.0,-95.0,-1605.0,276.0,2
1731,-43.0,-388.0,41.0,-167.0,218.0,450.0,-155.0,-1564.0,209.0,2
1732,-58.0,-374.0,17.0,-19.0,199.0,449.0,-213.0,-1513.0,89.0,2
1733,-66.0,-362.0,1.0,106.0,190.0,451.0,-267.0,-1461.0,19.0,2
1734,-77.0,-349.0,-10.0,206.0,192.0,446.0,-296.0,-1419.0,-29.0,2
1735,-76.0,-340.0,-15.0,294.0,189.0,434.0,-299.0,-1372.0,-44.0,2
1736,-81.0,-325.0,-21.0,386.0,176.0,412.0,-304.0,-1315.0,-71.0,2
1737,-76.0,-309.0,-33.0,473.0,147.0,384.0,-299.0,-1242.0,-104.0,2
1738,-75.0,-287.0,-45.0,548.0,108.0,348.0,-289.0,-1173.0,-155.0,2
1739,-74.0,-267.0,-68.0,600.0,68.0,315.0,-281.0,-1116.0,-237.0,2
1740,-74.0,-259.0,-83.0,612.0,30.0,289.0,-295.0,-1076.0,-324.0,2
1741,-83.0,-255.0,-104.0,578.0,-3.0,285.0,-325.0,-1065.0,-403.0,2
1742,-89.0,-254.0,-120.0,504.0,-45.0,290.0,-341.0,-1047.0,-461.0,2
1743,-67.0,-258.0,-130.0,411.0,-99.0,311.0,-274.0,-1068.0,-515.0,2
1744,-38.0,-267.0,-132.0,310.0,-152.0,338.0,-153.0,-1093.0,-522.0,2
1745,-12.0,-278.0,-127.0,225.0,-183.0,355.0,-27.0,-1134.0,-493.0,2
1746,19.0,-291.0,-108.0,178.0,-183.0,369.0,85.0,-1175.0,-427.0,2
1747,46.0,-302.0,-84.0,186.0,-164.0,375.0,174.0,-1202.0,-337.0,2
1748,59.0,-303.0,-70.0,241.0,-131.0,368.0,228.0,-1211.0,-267.0,2
1749,62.0,-302.0,-61.0,308.0,-95.0,350.0,254.0,-1208.0,-232.0,2
1750,64.0,-299.0,-65.0,356.0,-69.0,328.0,272.0,-1202.0,-227.0,2
1751,67.0,-292.0,-55.0,381.0,-58.0,297.0,272.0,-1188.0,-205.0,2
1752,60.0,-286.0,-45.0,404.0,-52.0,255.0,249.0,-1170.0,-167.0,2
1753,43.0,-272.0,-46.0,439.0,-50.0,192.0,185.0,-1136.0,-155.0,2
1754,20.0,-261.0,-55.0,474.0,-60.0,121.0,101.0,-1081.0,-192.0,2
1755,12.0,-256.0,-64.0,478.0,-95.0,41.0,40.0,-1030.0,-238.0,2
1756,-12.0,-242.0,-65.0,434.0,-132.0,-22.0,-45.0,-1003.0,-254.0,2
1757,-33.0,-236.0,-63.0,351.0,-160.0,-79.0,-116.0,-983.0,-234.0,2
1758,-44.0,-238.0,-54.0,249.0,-200.0,-124.0,-160.0,-991.0,-193.0,2
1759,-58.0,-246.0,-48.0,151.0,-260.0,-161.0,-200.0,-1013.0,-158.0,2
1760,-66.0,-256.0,-24.0,61.0,-330.0,-199.0,-245.0,-1059.0,-97.0,2
1761,-66.0,-264.0,-20.0,11.0,-402.0,-235.0,-250.0,-1081.0,-42.0,2
1762,-53.0,-269.0,-7.0,0.0,-477.0,-281.0,-203.0,-1088.0,-6.0,2
1763,-42.0,-265.0,-1.0,25.0,-536.0,-343.0,-156.0,-1082.0,6.0,2
1764,-26.0,-264.0,-4.0,81.0,-577.0,-411.0,-99.0,-1074.0,-11.0,2
1765,-23.0,-262.0,-15.0,135.0,-614.0,-482.0,-69.0,-1076.0,-37.0,2
1766,-20.0,-265.0,-18.0,168.0,-646.0,-551.0,-66.0,-1071.0,-48.0,2
1767,-18.0,-261.0,-26.0,192.0,-687.0,-612.0,-56.0,-1068.0,-80.0,2
1768,-14.0,-256.0,-27.0,213.0,-731.0,-655.0,-41.0,-1055.0,-79.0,2
1769,-3.0,-254.0,-29.0,250.0,-764.0,-686.0,-9.0,-1019.0,-81.0,2
1770,-4.0,-240.0,-35.0,300.0,-775.0,-704.0,-2.0,-989.0,-120.0,2
1771,-3.0,-226.0,-41.0,309.0,-758.0,-706.0,-9.0,-961.0,-128.0,2
1772,-2.0,-223.0,-31.0,281.0,-734.0,-694.0,-11.0,-916.0,-96.0,2
1773,-4.0,-213.0,-17.0,256.0,-717.0,-676.0,-18.0,-881.0,-58.0,2
1774,-8.0,-209.0,-10.0,251.0,-699.0,-656.0,-29.0,-850.0,-15.0,2
1775,-10.0,-199.0,-7.0,275.0,-687.0,-647.0,-44.0,-811.0,-9.0,2
1776,-13.0,-190.0,-1.0,317.0,-686.0,-634.0,-63.0,-760.0,9.0,2
1777,-17.0,-179.0,-3.0,354.0,-708.0,-615.0,-61.0,-727.0,4.0,2
1778,-20.0,-174.0,-10.0,374.0,-745.0,-591.0,-43.0,-702.0,-16.0,2
1779,-11.0,-158.0,-15.0,360.0,-788.0,-568.0,-21.0,-677.0,-40.0,2
1780,-1.0,-158.0,-21.0,312.0,-832.0,-548.0,-8.0,-644.0,-61.0,2
1781,2.0,-151.0,-32.0,246.0,-876.0,-532.0,24.0,-643.0,-99.0,2
1782,11.0,-157.0,-33.0,136.0,-905.0,-531.0,39.0,-658.0,-109.0,2
1783,15.0,-162.0,-27.0,25.0,-903.0,-531.0,66.0,-676.0,-84.0,2
1784,20.0,-166.0,-17.0,-69.0,-893.0,-531.0,92.0,-679.0,-57.0,2
1785,27.0,-168.0,-8.0,-125.0,-879.0,-527.0,112.0,-697.0,-4.0,2
1786,34.0,-169.0,-3.0,-157.0,-858.0,-521.0,141.0,-697.0,3.0,2
1787,41.0,-168.0,-4.0,-194.0,-836.0,-522.0,149.0,-690.0,-7.0,2
1788,33.0,-169.0,-12.0,-256.0,-819.0,-511.0,135.0,-701.0,-13.0,2
1789,28.0,-180.0,-5.0,-337.0,-809.0,-474.0,112.0,-736.0,-11.0,2
1790,31.0,-191.0,18.0,-374.0,-799.0,-419.0,115.0,-755.0,96.0,2
1791,39.0,-189.0,12.0,-293.0,-776.0,-387.0,152.0,-776.0,69.0,2
1792,31.0,-192.0,12.0,-216.0,-758.0,-367.0,138.0,-782.0,60.0,2
1793,30.0,-188.0,0.0,-188.0,-757.0,-342.0,126.0,-784.0,18.0,2
1794,36.0,-184.0,-1.0,-225.0,-746.0,-311.0,122.0,-755.0,12.0,2
1795,33.0,-185.0,9.0,-264.0,-729.0,-280.0,133.0,-751.0,59.0,2
1796,35.0,-182.0,2.0,-273.0,-717.0,-264.0,139.0,-749.0,24.0,2
1797,31.0,-184.0,-2.0,-291.0,-688.0,-249.0,113.0,-749.0,12.0,2
1798,27.0,-183.0,2.0,-312.0,-650.0,-222.0,104.0,-752.0,27.0,2
1799,25.0,-186.0,7.0,-324.0,-623.0,-189.0,105.0,-769.0,46.0,2
1800,24.0,-191.0,9.0,-338.0,-614.0,-156.0,103.0,-779.0,64.0,2
1801,29.0,-195.0,22.0,-353.0,-612.0,-126.0,114.0,-793.0,94.0,2
1802,32.0,-198.0,26.0,-360.0,-605.0,-95.0,121.0,-803.0,137.0,2
1803,32.0,-199.0,36.0,-334.0,-584.0,-72.0,111.0,-804.0,160.0,2
1804,28.0,-199.0,39.0,-283.0,-550.0,-40.0,110.0,-821.0,162.0,2
1805,25.0,-200.0,33.0,-243.0,-541.0,5.0,101.0,-822.0,150.0,2
1806,23.0,-201.0,32.0,-222.0,-548.0,40.0,94.0,-825.0,147.0,2
1807,25.0,-209.0,34.0,-200.0,-547.0,72.0,88.0,-833.0,156.0,2
1808,21.0,-209.0,31.0,-178.0,-535.0,100.0,82.0,-842.0,158.0,2
1809,20.0,-208.0,36.0,-153.0,-522.0,127.0,84.0,-850.0,175.0,2
1810,18.0,-209.0,44.0,-124.0,-509.0,151.0,82.0,-858.0,185.0,2
1811,19.0,-212.0,42.0,-96.0,-498.0,174.0,71.0,-865.0,180.0,2
1812,17.0,-215.0,42.0,-74.0,-486.0,197.0,62.0,-881.0,178.0,2
1813,16.0,-216.0,38.0,-63.0,-477.0,222.0,61.0,-886.0,173.0,2
1814,15.0,-216.0,39.0,-57.0,-469.0,242.0,61.0,-903.0,173.0,2
1815,14.0,-223.0,39.0,-56.0,-466.0,260.0,60.0,-919.0,168.0,2
1816,12.0,-224.0,37.0,-53.0,-465.0,273.0,62.0,-929.0,157.0,2
1817,16.0,-229.0,28.0,-54.0,-465.0,283.0,70.0,-947.0,129.0,2
1818,17.0,-238.0,20.0,-67.0,-466.0,285.0,70.0,-961.0,85.0,2
1819,19.0,-240.0,13.0,-87.0,-465.0,277.0,86.0,-988.0,71.0,2
1820,21.0,-248.0,9.0,-107.0,-467.0,264.0,77.0,-1004.0,46.0,2
1821,18.0,-256.0,7.0,-121.0,-467.0,245.0,68.0,-1039.0,43.0,2
1822,12.0,-259.0,5.0,-140.0,-468.0,220.0,56.0,-1069.0,45.0,2
1823,3.0,-275.0,15.0,-159.0,-462.0,194.0,1.0,-1120.0,91.0,2
1824,4.0,-284.0,20.0,-171.0,-442.0,174.0,28.0,-1162.0,103.0,2
1825,5.0,-289.0,35.0,-189.0,-432.0,147.0,29.0,-1182.0,154.0,2
1826,27.0,-294.0,27.0,-226.0,-447.0,120.0,100.0,-1199.0,130.0,2
1827,33.0,-299.0,11.0,-264.0,-448.0,78.0,137.0,-1226.0,78.0,2
1828,41.0,-311.0,5.0,-292.0,-424.0,12.0,158.0,-1249.0,47.0,2
1829,48.0,-312.0,2.0,-308.0,-390.0,-62.0,188.0,-1259.0,48.0,2
1830,59.0,-316.0,8.0,-308.0,-352.0,-134.0,219.0,-1283.0,70.0,2
1831,63.0,-320.0,17.0,-283.0,-309.0,-203.0,243.0,-1293.0,85.0,2
1832,67.0,-320.0,21.0,-238.0,-261.0,-261.0,260.0,-1289.0,120.0,2
1833,60.0,-316.0,36.0,-178.0,-220.0,-312.0,230.0,-1282.0,161.0,2
1834,50.0,-313.0,41.0,-112.0,-193.0,-349.0,200.0,-1276.0,209.0,2
1835,42.0,-315.0,56.0,-49.0,-180.0,-377.0,168.0,-1273.0,247.0,2
1836,37.0,-314.0,61.0,-1.0,-180.0,-387.0,143.0,-1265.0,265.0,2
1837,19.0,-308.0,61.0,17.0,-188.0,-387.0,91.0,-1272.0,270.0,2
1838,11.0,-309.0,53.0,-10.0,-198.0,-387.0,61.0,-1273.0,245.0,2
1839,9.0,-314.0,46.0,-82.0,-234.0,-402.0,49.0,-1296.0,187.0,2
1840,14.0,-322.0,35.0,-197.0,-291.0,-433.0,77.0,-1327.0,158.0,2
1841,32.0,-329.0,37.0,-326.0,-349.0,-483.0,134.0,-1373.0,144.0,2
1842,52.0,-349.0,28.0,-421.0,-389.0,-538.0,202.0,-1426.0,142.0,2
1843,75.0,-372.0,26.0,-444.0,-390.0,-586.0,294.0,-1479.0,145.0,2
1844,92.0,-378.0,28.0,-389.0,-354.0,-624.0,368.0,-1520.0,134.0,2
1845,113.0,-383.0,22.0,-264.0,-295.0,-649.0,443.0,-1534.0,107.0,2
1846,120.0,-379.0,13.0,-96.0,-218.0,-664.0,474.0,-1517.0,66.0,2
1847,117.0,-365.0,1.0,77.0,-137.0,-666.0,451.0,-1473.0,36.0,2
1848,105.0,-348.0,-8.0,221.0,-64.0,-651.0,419.0,-1418.0,7.0,2
1849,95.0,-334.0,-13.0,333.0,-8.0,-624.0,377.0,-1357.0,-29.0,2
1850,83.0,-322.0,-24.0,425.0,36.0,-581.0,318.0,-1297.0,-72.0,2
1851,68.0,-306.0,-43.0,500.0,72.0,-527.0,270.0,-1228.0,-124.0,2
1852,54.0,-287.0,-54.0,553.0,106.0,-460.0,204.0,-1176.0,-185.0,2
1853,39.0,-275.0,-75.0,593.0,143.0,-390.0,173.0,-1130.0,-256.0,2
1854,32.0,-268.0,-88.0,628.0,177.0,-323.0,136.0,-1094.0,-325.0,2
1855,29.0,-258.0,-100.0,653.0,204.0,-267.0,123.0,-1051.0,-389.0,2
1856,28.0,-247.0,-121.0,660.0,228.0,-231.0,105.0,-996.0,-452.0,2
1857,22.0,-232.0,-136.0,632.0,248.0,-212.0,106.0,-969.0,-531.0,2
1858,23.0,-234.0,-151.0,546.0,261.0,-207.0,108.0,-957.0,-593.0,2
1859,13.0,-231.0,-152.0,401.0,264.0,-215.0,84.0,-965.0,-606.0,2
1860,6.0,-239.0,-148.0,214.0,246.0,-233.0,59.0,-1004.0,-582.0,2
1861,3.0,-259.0,-132.0,7.0,210.0,-250.0,39.0,-1082.0,-511.0,2
1862,0.0,-284.0,-103.0,-180.0,180.0,-260.0,16.0,-1178.0,-417.0,2
1863,0.0,-312.0,-82.0,-319.0,169.0,-260.0,7.0,-1266.0,-306.0,2
1864,1.0,-327.0,-65.0,-378.0,178.0,-248.0,24.0,-1347.0,-218.0,2
1865,2.0,-346.0,-44.0,-365.0,208.0,-222.0,14.0,-1408.0,-136.0,2
1866,3.0,-359.0,-24.0,-288.0,253.0,-186.0,15.0,-1440.0,-77.0,2
1867,6.0,-361.0,-18.0,-161.0,301.0,-137.0,31.0,-1452.0,-48.0,2
1868,11.0,-359.0,-12.0,-10.0,346.0,-83.0,34.0,-1447.0,-18.0,2
1869,1.0,-349.0,-11.0,151.0,388.0,-21.0,16.0,-1419.0,-11.0,2
1870,-1.0,-343.0,-9.0,293.0,422.0,43.0,-15.0,-1380.0,-12.0,2
1871,-2.0,-326.0,-10.0,401.0,436.0,107.0,-17.0,-1315.0,-4.0,2
1872,-1.0,-305.0,-6.0,485.0,443.0,166.0,-2.0,-1244.0,-7.0,2
1873,2.0,-283.0,-19.0,552.0,461.0,222.0,6.0,-1169.0,-36.0,2
1874,0.0,-268.0,-25.0,595.0,497.0,271.0,9.0,-1099.0,-69.0,2
1875,2.0,-255.0,-27.0,615.0,539.0,313.0,11.0,-1035.0,-90.0,2
1876,0.0,-236.0,-34.0,619.0,574.0,351.0,5.0,-968.0,-102.0,2
1877,1.0,-221.0,-37.0,612.0,597.0,394.0,14.0,-914.0,-121.0,2
1878,1.0,-209.0,-40.0,594.0,618.0,440.0,16.0,-856.0,-155.0,2
1879,3.0,-200.0,-46.0,559.0,640.0,483.0,13.0,-818.0,-168.0,2
1880,7.0,-192.0,-53.0,528.0,663.0,530.0,40.0,-785.0,-177.0,2
1881,11.0,-185.0,-56.0,503.0,693.0,571.0,50.0,-758.0,-207.0,2
1882,11.0,-176.0,-64.0,466.0,731.0,606.0,57.0,-730.0,-211.0,2
1883,22.0,-174.0,-54.0,407.0,774.0,631.0,83.0,-719.0,-192.0,2
1884,27.0,-174.0,-52.0,353.0,817.0,646.0,103.0,-714.0,-181.0,2
1885,35.0,-178.0,-59.0,299.0,864.0,648.0,148.0,-744.0,-216.0,2
1886,35.0,-182.0,-48.0,199.0,903.0,634.0,143.0,-734.0,-153.0,2
1887,42.0,-186.0,-52.0,113.0,921.0,623.0,162.0,-783.0,-184.0,2
1888,36.0,-190.0,-52.0,8.0,932.0,617.0,161.0,-802.0,-179.0,2
1889,38.0,-189.0,-38.0,-109.0,936.0,612.0,166.0,-787.0,-125.0,2
1890,51.0,-198.0,-33.0,-172.0,946.0,602.0,172.0,-803.0,-86.0,2
1891,44.0,-198.0,-21.0,-184.0,976.0,582.0,169.0,-809.0,-56.0,2
1892,35.0,-201.0,-12.0,-164.0,1017.0,558.0,143.0,-819.0,-24.0,2
1893,25.0,-203.0,-12.0,-138.0,1062.0,547.0,114.0,-831.0,-16.0,2
1894,20.0,-206.0,0.0,-111.0,1098.0,551.0,80.0,-837.0,27.0,2
1895,14.0,-207.0,-3.0,-45.0,1117.0,559.0,61.0,-843.0,11.0,2
1896,9.0,-205.0,-7.0,32.0,1132.0,564.0,32.0,-830.0,-5.0,2
1897,-1.0,-198.0,-12.0,114.0,1148.0,565.0,1.0,-806.0,-47.0,2
1898,-12.0,-185.0,-25.0,181.0,1156.0,561.0,-36.0,-764.0,-76.0,2
1899,-13.0,-174.0,-36.0,220.0,1162.0,562.0,-58.0,-722.0,-116.0,2
1900,-23.0,-165.0,-43.0,220.0,1171.0,565.0,-82.0,-692.0,-135.0,2
1901,-26.0,-158.0,-42.0,176.0,1174.0,566.0,-88.0,-676.0,-141.0,2
1902,-27.0,-161.0,-29.0,87.0,1162.0,551.0,-98.0,-682.0,-121.0,2
1903,-34.0,-167.0,-27.0,-29.0,1136.0,524.0,-120.0,-701.0,-85.0,2
1904,-38.0,-175.0,-16.0,-151.0,1099.0,495.0,-136.0,-736.0,-36.0,2
1905,-36.0,-190.0,-7.0,-256.0,1060.0,472.0,-139.0,-797.0,-6.0,2
1906,-34.0,-201.0,27.0,-339.0,1024.0,446.0,-116.0,-818.0,132.0,2
1907,-28.0,-203.0,14.0,-320.0,975.0,408.0,-108.0,-829.0,81.0,2
1908,-33.0,-203.0,19.0,-306.0,934.0,388.0,-120.0,-828.0,69.0,2
1909,-33.0,-208.0,19.0,-297.0,909.0,367.0,-135.0,-845.0,103.0,2
1910,-38.0,-209.0,19.0,-261.0,877.0,336.0,-133.0,-850.0,74.0,2
1911,-43.0,-214.0,10.0,-239.0,831.0,300.0,-150.0,-846.0,71.0,2
1912,-40.0,-209.0,12.0,-228.0,782.0,275.0,-154.0,-854.0,64.0,2
1913,-43.0,-209.0,18.0,-223.0,741.0,255.0,-176.0,-846.0,80.0,2
1914,-48.0,-206.0,15.0,-200.0,703.0,255.0,-178.0,-855.0,76.0,2
1915,-54.0,-210.0,19.0,-167.0,670.0,253.0,-178.0,-862.0,79.0,2
1916,-51.0,-213.0,17.0,-140.0,639.0,249.0,-190.0,-871.0,91.0,2
1917,-54.0,-208.0,22.0,-121.0,611.0,235.0,-196.0,-868.0,108.0,2
1918,-54.0,-210.0,28.0,-102.0,584.0,222.0,-197.0,-868.0,128.0,2
1919,-50.0,-212.0,30.0,-76.0,556.0,203.0,-200.0,-870.0,141.0,2
1920,-51.0,-213.0,32.0,-41.0,527.0,185.0,-198.0,-872.0,151.0,2
1921,-52.0,-214.0,36.0,-4.0,500.0,163.0,-190.0,-873.0,166.0,2
1922,-46.0,-209.0,39.0,33.0,472.0,134.0,-185.0,-866.0,170.0,2
1923,-42.0,-205.0,44.0,70.0,444.0,101.0,-163.0,-853.0,177.0,2
1924,-40.0,-205.0,39.0,109.0,426.0,68.0,-154.0,-848.0,167.0,2
1925,-32.0,-200.0,37.0,124.0,393.0,38.0,-122.0,-829.0,166.0,2
1926,-18.0,-203.0,40.0,103.0,363.0,6.0,-77.0,-835.0,176.0,2
1927,-8.0,-207.0,42.0,77.0,362.0,-29.0,-35.0,-860.0,188.0,2
1928,-1.0,-213.0,49.0,42.0,376.0,-62.0,-17.0,-877.0,216.0,2
1929,-1.0,-216.0,56.0,19.0,391.0,-93.0,1.0,-895.0,251.0,2
