,acc1_x,acc1_y,acc1_z,gyro_x,gyro_y,gyro_z,acc2_x,acc2_y,acc2_z,label
0,38.0,-275.0,-50.0,-12.0,-310.0,119.0,120.0,-1078.0,-114.0,2
1,40.0,-273.0,-46.0,-35.0,-319.0,115.0,122.0,-1065.0,-118.0,2
2,39.0,-271.0,-52.0,-57.0,-331.0,103.0,129.0,-1061.0,-124.0,2
3,42.0,-273.0,-50.0,-75.0,-342.0,93.0,128.0,-1065.0,-128.0,2
4,41.0,-273.0,-54.0,-94.0,-347.0,77.0,128.0,-1067.0,-136.0,2
5,44.0,-262.0,-68.0,-108.0,-349.0,68.0,127.0,-1070.0,-143.0,2
6,41.0,-273.0,-56.0,-122.0,-348.0,49.0,125.0,-1062.0,-149.0,2
7,38.0,-271.0,-58.0,-135.0,-344.0,36.0,124.0,-1077.0,-159.0,2
8,37.0,-275.0,-58.0,-144.0,-340.0,15.0,115.0,-1077.0,-152.0,2
9,40.0,-276.0,-53.0,-142.0,-334.0,4.0,119.0,-1068.0,-130.0,2
10,41.0,-275.0,-51.0,-124.0,-328.0,-7.0,125.0,-1074.0,-126.0,2
11,45.0,-278.0,-54.0,-96.0,-314.0,-13.0,134.0,-1090.0,-126.0,2
12,49.0,-284.0,-56.0,-69.0,-294.0,-21.0,136.0,-1098.0,-127.0,2
13,46.0,-287.0,-55.0,-33.0,-269.0,-20.0,143.0,-1098.0,-140.0,2
14,52.0,-287.0,-60.0,9.0,-239.0,-20.0,147.0,-1108.0,-162.0,2
15,50.0,-282.0,-63.0,54.0,-207.0,-17.0,161.0,-1105.0,-174.0,2
16,54.0,-283.0,-69.0,92.0,-179.0,-11.0,172.0,-1103.0,-206.0,2
17,55.0,-285.0,-74.0,128.0,-142.0,-6.0,188.0,-1111.0,-232.0,2
18,61.0,-286.0,-80.0,155.0,-111.0,-8.0,211.0,-1121.0,-254.0,2
19,64.0,-286.0,-82.0,164.0,-83.0,-16.0,211.0,-1124.0,-260.0,2
20,66.0,-287.0,-75.0,151.0,-57.0,-30.0,223.0,-1130.0,-254.0,2
21,65.0,-291.0,-78.0,128.0,-31.0,-48.0,217.0,-1135.0,-230.0,2
22,59.0,-288.0,-71.0,104.0,-6.0,-67.0,203.0,-1136.0,-200.0,2
23,56.0,-285.0,-62.0,83.0,21.0,-79.0,194.0,-1126.0,-175.0,2
24,52.0,-283.0,-55.0,74.0,46.0,-89.0,173.0,-1105.0,-150.0,2
25,47.0,-278.0,-52.0,83.0,64.0,-88.0,137.0,-1086.0,-139.0,2
26,42.0,-271.0,-57.0,104.0,74.0,-81.0,128.0,-1059.0,-144.0,2
27,36.0,-263.0,-56.0,128.0,75.0,-63.0,104.0,-1027.0,-157.0,2
28,31.0,-250.0,-63.0,154.0,63.0,-45.0,103.0,-969.0,-183.0,2
29,29.0,-229.0,-66.0,172.0,58.0,-47.0,96.0,-904.0,-194.0,2
30,27.0,-227.0,-86.0,186.0,42.0,-47.0,70.0,-895.0,-266.0,2
31,21.0,-221.0,-88.0,179.0,34.0,-14.0,59.0,-858.0,-287.0,2
32,18.0,-215.0,-91.0,154.0,31.0,5.0,37.0,-847.0,-285.0,2
33,14.0,-214.0,-94.0,130.0,21.0,15.0,25.0,-836.0,-305.0,2
34,11.0,-208.0,-99.0,101.0,8.0,25.0,20.0,-826.0,-323.0,2
35,6.0,-206.0,-103.0,61.0,-11.0,29.0,8.0,-812.0,-338.0,2
36,2.0,-202.0,-101.0,13.0,-34.0,30.0,-3.0,-803.0,-357.0,2
37,-4.0,-201.0,-118.0,-40.0,-64.0,25.0,-18.0,-791.0,-346.0,2
38,-1.0,-198.0,-114.0,-98.0,-94.0,25.0,-23.0,-787.0,-387.0,2
39,-4.0,-199.0,-107.0,-179.0,-128.0,25.0,-43.0,-792.0,-375.0,2
40,-11.0,-205.0,-99.0,-235.0,-151.0,28.0,-64.0,-798.0,-322.0,2
41,-15.0,-210.0,-92.0,-253.0,-168.0,29.0,-87.0,-816.0,-282.0,2
42,-21.0,-214.0,-92.0,-231.0,-180.0,32.0,-109.0,-836.0,-281.0,2
43,-27.0,-217.0,-92.0,-194.0,-191.0,35.0,-129.0,-851.0,-288.0,2
44,-27.0,-222.0,-95.0,-158.0,-197.0,44.0,-143.0,-857.0,-296.0,2
45,-34.0,-225.0,-97.0,-122.0,-201.0,48.0,-156.0,-870.0,-307.0,2
46,-35.0,-227.0,-97.0,-84.0,-200.0,64.0,-178.0,-884.0,-323.0,2
47,-38.0,-227.0,-103.0,-47.0,-190.0,77.0,-183.0,-883.0,-333.0,2
48,-37.0,-228.0,-106.0,-10.0,-175.0,99.0,-186.0,-879.0,-348.0,2
49,-38.0,-228.0,-113.0,20.0,-150.0,123.0,-181.0,-881.0,-366.0,2
50,-34.0,-226.0,-115.0,43.0,-125.0,146.0,-177.0,-882.0,-384.0,2
51,-39.0,-222.0,-115.0,45.0,-98.0,161.0,-181.0,-872.0,-390.0,2
52,-34.0,-221.0,-111.0,35.0,-73.0,184.0,-167.0,-867.0,-393.0,2
53,-25.0,-225.0,-116.0,16.0,-55.0,197.0,-140.0,-878.0,-396.0,2
54,-24.0,-224.0,-113.0,-14.0,-43.0,208.0,-119.0,-879.0,-379.0,2
55,-16.0,-231.0,-106.0,-44.0,-42.0,213.0,-102.0,-897.0,-354.0,2
56,-16.0,-234.0,-104.0,-67.0,-46.0,224.0,-96.0,-911.0,-333.0,2
57,-8.0,-241.0,-99.0,-84.0,-51.0,234.0,-66.0,-936.0,-326.0,2
58,-2.0,-246.0,-95.0,-96.0,-47.0,243.0,-40.0,-951.0,-304.0,2
59,4.0,-252.0,-85.0,-97.0,-37.0,247.0,-13.0,-959.0,-270.0,2
60,8.0,-254.0,-80.0,-82.0,-18.0,254.0,6.0,-968.0,-253.0,2
61,14.0,-256.0,-77.0,-40.0,-1.0,255.0,19.0,-979.0,-238.0,2
62,18.0,-259.0,-73.0,2.0,19.0,257.0,43.0,-999.0,-233.0,2
63,24.0,-259.0,-76.0,41.0,43.0,255.0,56.0,-1013.0,-224.0,2
64,24.0,-259.0,-74.0,77.0,64.0,262.0,64.0,-1004.0,-206.0,2
65,32.0,-259.0,-70.0,114.0,87.0,263.0,80.0,-1012.0,-207.0,2
66,33.0,-263.0,-71.0,146.0,118.0,268.0,86.0,-1021.0,-217.0,2
67,32.0,-260.0,-77.0,173.0,155.0,272.0,91.0,-1015.0,-234.0,2
68,30.0,-259.0,-77.0,188.0,193.0,283.0,81.0,-1008.0,-243.0,2
69,30.0,-258.0,-82.0,197.0,225.0,295.0,83.0,-1006.0,-244.0,2
70,32.0,-255.0,-80.0,198.0,250.0,318.0,81.0,-1001.0,-252.0,2
71,25.0,-252.0,-79.0,191.0,269.0,343.0,66.0,-977.0,-253.0,2
72,25.0,-254.0,-85.0,180.0,282.0,372.0,57.0,-976.0,-257.0,2
73,25.0,-248.0,-93.0,157.0,299.0,392.0,58.0,-961.0,-276.0,2
74,19.0,-245.0,-88.0,127.0,323.0,410.0,49.0,-951.0,-276.0,2
75,15.0,-241.0,-88.0,91.0,346.0,418.0,23.0,-940.0,-277.0,2
76,7.0,-236.0,-79.0,60.0,356.0,430.0,-2.0,-920.0,-272.0,2
77,3.0,-231.0,-79.0,49.0,365.0,443.0,-15.0,-901.0,-238.0,2
78,1.0,-226.0,-83.0,47.0,360.0,440.0,-37.0,-887.0,-255.0,2
79,-1.0,-221.0,-79.0,27.0,357.0,432.0,-40.0,-869.0,-245.0,2
80,-7.0,-222.0,-76.0,9.0,372.0,433.0,-69.0,-855.0,-227.0,2
81,-14.0,-219.0,-76.0,2.0,405.0,431.0,-86.0,-859.0,-230.0,2
82,-20.0,-215.0,-74.0,-12.0,421.0,429.0,-103.0,-848.0,-237.0,2
83,-26.0,-211.0,-73.0,-28.0,426.0,423.0,-126.0,-822.0,-217.0,2
84,-30.0,-204.0,-63.0,-35.0,421.0,417.0,-147.0,-795.0,-196.0,2
85,-29.0,-201.0,-67.0,-30.0,410.0,417.0,-128.0,-761.0,-200.0,2
86,-37.0,-197.0,-71.0,-21.0,392.0,446.0,-172.0,-786.0,-218.0,2
87,-41.0,-195.0,-68.0,-40.0,414.0,415.0,-189.0,-758.0,-220.0,2
88,-39.0,-196.0,-76.0,-66.0,418.0,397.0,-181.0,-757.0,-228.0,2
89,-35.0,-193.0,-77.0,-104.0,416.0,384.0,-175.0,-756.0,-234.0,2
90,-38.0,-198.0,-70.0,-143.0,420.0,372.0,-171.0,-769.0,-224.0,2
91,-38.0,-200.0,-72.0,-178.0,428.0,359.0,-170.0,-784.0,-221.0,2
92,-36.0,-203.0,-69.0,-206.0,441.0,338.0,-169.0,-798.0,-217.0,2
93,-34.0,-208.0,-71.0,-235.0,446.0,319.0,-164.0,-819.0,-208.0,2
94,-35.0,-227.0,-76.0,-246.0,433.0,324.0,-161.0,-843.0,-208.0,2
95,-35.0,-219.0,-59.0,-259.0,451.0,310.0,-166.0,-848.0,-179.0,2
96,-31.0,-226.0,-60.0,-255.0,461.0,264.0,-142.0,-872.0,-180.0,2
97,-30.0,-229.0,-64.0,-240.0,450.0,240.0,-138.0,-886.0,-173.0,2
98,-26.0,-231.0,-64.0,-229.0,446.0,217.0,-138.0,-888.0,-177.0,2
99,-15.0,-235.0,-63.0,-211.0,450.0,203.0,-103.0,-904.0,-171.0,2
100,-13.0,-237.0,-61.0,-205.0,452.0,186.0,-90.0,-912.0,-172.0,2
101,-17.0,-247.0,-68.0,-196.0,435.0,184.0,-110.0,-941.0,-206.0,2
102,-17.0,-246.0,-66.0,-185.0,439.0,184.0,-122.0,-944.0,-186.0,2
103,-21.0,-245.0,-61.0,-173.0,465.0,146.0,-110.0,-944.0,-179.0,2
104,-17.0,-247.0,-67.0,-158.0,454.0,123.0,-94.0,-949.0,-179.0,2
105,-12.0,-250.0,-63.0,-145.0,442.0,108.0,-92.0,-959.0,-184.0,2
106,-14.0,-251.0,-63.0,-133.0,431.0,99.0,-88.0,-963.0,-192.0,2
107,-18.0,-245.0,-61.0,-128.0,425.0,103.0,-114.0,-943.0,-169.0,2
108,-20.0,-246.0,-63.0,-119.0,434.0,64.0,-108.0,-959.0,-170.0,2
109,-23.0,-242.0,-54.0,-111.0,425.0,40.0,-121.0,-928.0,-152.0,2
110,-20.0,-244.0,-55.0,-100.0,411.0,22.0,-113.0,-931.0,-152.0,2
111,-21.0,-243.0,-54.0,-93.0,408.0,8.0,-110.0,-929.0,-140.0,2
112,-14.0,-237.0,-50.0,-84.0,412.0,-10.0,-101.0,-914.0,-131.0,2
113,-24.0,-244.0,-53.0,-70.0,409.0,5.0,-122.0,-938.0,-132.0,2
114,-27.0,-242.0,-52.0,-57.0,433.0,-23.0,-136.0,-929.0,-117.0,2
115,-29.0,-238.0,-48.0,-46.0,441.0,-54.0,-139.0,-923.0,-114.0,2
116,-29.0,-238.0,-48.0,-40.0,436.0,-75.0,-137.0,-923.0,-118.0,2
117,-25.0,-239.0,-51.0,-41.0,436.0,-88.0,-127.0,-925.0,-120.0,2
118,-24.0,-242.0,-49.0,-45.0,438.0,-104.0,-125.0,-924.0,-109.0,2
119,-25.0,-239.0,-46.0,-46.0,443.0,-113.0,-131.0,-929.0,-99.0,2
120,-23.0,-240.0,-42.0,-46.0,446.0,-124.0,-126.0,-924.0,-92.0,2
121,-23.0,-239.0,-39.0,-43.0,448.0,-128.0,-119.0,-917.0,-83.0,2
122,-17.0,-243.0,-32.0,-35.0,442.0,-116.0,-118.0,-929.0,-85.0,2
123,-26.0,-245.0,-41.0,-30.0,447.0,-92.0,-139.0,-930.0,-88.0,2
124,-33.0,-241.0,-42.0,-28.0,480.0,-129.0,-140.0,-920.0,-78.0,2
125,-28.0,-241.0,-42.0,-18.0,480.0,-136.0,-132.0,-929.0,-83.0,2
126,-24.0,-245.0,-42.0,-20.0,480.0,-140.0,-120.0,-938.0,-95.0,2
127,-25.0,-245.0,-38.0,-21.0,482.0,-139.0,-127.0,-943.0,-87.0,2
128,-27.0,-243.0,-42.0,-20.0,485.0,-144.0,-130.0,-949.0,-89.0,2
129,-29.0,-247.0,-46.0,-17.0,486.0,-143.0,-139.0,-954.0,-92.0,2
130,-31.0,-249.0,-36.0,-18.0,486.0,-143.0,-139.0,-958.0,-90.0,2
131,-35.0,-251.0,-37.0,-15.0,481.0,-141.0,-153.0,-966.0,-86.0,2
132,-36.0,-254.0,-39.0,-14.0,474.0,-137.0,-170.0,-986.0,-85.0,2
133,-35.0,-256.0,-43.0,-21.0,464.0,-133.0,-177.0,-996.0,-88.0,2
134,-40.0,-259.0,-42.0,-26.0,449.0,-130.0,-195.0,-1002.0,-96.0,2
135,-42.0,-260.0,-42.0,-38.0,422.0,-120.0,-201.0,-1013.0,-93.0,2
136,-36.0,-263.0,-26.0,-35.0,379.0,-79.0,-176.0,-1039.0,-88.0,2
137,-50.0,-274.0,-43.0,-28.0,375.0,-51.0,-217.0,-1034.0,-104.0,2
138,-53.0,-267.0,-46.0,-20.0,407.0,-89.0,-233.0,-1040.0,-103.0,2
139,-50.0,-278.0,-50.0,-15.0,400.0,-98.0,-225.0,-1067.0,-108.0,2
140,-44.0,-277.0,-52.0,-17.0,390.0,-93.0,-203.0,-1078.0,-113.0,2
141,-36.0,-282.0,-46.0,-18.0,387.0,-85.0,-201.0,-1088.0,-105.0,2
142,-40.0,-281.0,-43.0,-23.0,387.0,-78.0,-192.0,-1097.0,-109.0,2
143,-41.0,-290.0,-45.0,-30.0,390.0,-76.0,-184.0,-1122.0,-100.0,2
144,-40.0,-296.0,-41.0,-41.0,395.0,-72.0,-185.0,-1142.0,-87.0,2
145,-34.0,-302.0,-22.0,-40.0,387.0,-28.0,-175.0,-1178.0,-64.0,2
146,-35.0,-312.0,-33.0,-26.0,381.0,13.0,-189.0,-1191.0,-47.0,2
147,-44.0,-309.0,-25.0,-11.0,407.0,-24.0,-199.0,-1185.0,-23.0,2
148,-40.0,-311.0,-24.0,20.0,390.0,-38.0,-186.0,-1192.0,-14.0,2
149,-33.0,-308.0,-17.0,58.0,359.0,-16.0,-168.0,-1184.0,-13.0,2
150,-29.0,-305.0,-27.0,91.0,348.0,1.0,-151.0,-1172.0,-27.0,2
151,-34.0,-297.0,-23.0,117.0,344.0,3.0,-156.0,-1160.0,-33.0,2
152,-32.0,-293.0,-30.0,134.0,344.0,8.0,-166.0,-1134.0,-33.0,2
153,-30.0,-289.0,-34.0,149.0,343.0,18.0,-154.0,-1123.0,-40.0,2
154,-27.0,-288.0,-32.0,158.0,337.0,49.0,-130.0,-1123.0,-64.0,2
155,-24.0,-283.0,-36.0,156.0,335.0,85.0,-139.0,-1091.0,-53.0,2
156,-26.0,-281.0,-38.0,149.0,350.0,100.0,-133.0,-1088.0,-55.0,2
157,-27.0,-276.0,-34.0,146.0,357.0,112.0,-135.0,-1069.0,-64.0,2
158,-22.0,-279.0,-46.0,149.0,351.0,124.0,-123.0,-1086.0,-112.0,2
159,-21.0,-274.0,-56.0,135.0,345.0,145.0,-113.0,-1074.0,-144.0,2
160,-21.0,-272.0,-59.0,107.0,344.0,169.0,-112.0,-1079.0,-168.0,2
161,-23.0,-283.0,-66.0,77.0,339.0,190.0,-115.0,-1095.0,-192.0,2
162,-26.0,-286.0,-76.0,49.0,331.0,206.0,-131.0,-1123.0,-235.0,2
163,-29.0,-293.0,-83.0,29.0,306.0,224.0,-139.0,-1148.0,-265.0,2
164,-27.0,-304.0,-100.0,29.0,276.0,251.0,-145.0,-1169.0,-343.0,2
165,-31.0,-303.0,-118.0,30.0,250.0,272.0,-152.0,-1167.0,-388.0,2
166,-42.0,-304.0,-124.0,34.0,225.0,301.0,-180.0,-1180.0,-435.0,2
167,-53.0,-309.0,-136.0,29.0,184.0,330.0,-226.0,-1189.0,-482.0,2
168,-72.0,-310.0,-146.0,10.0,126.0,366.0,-278.0,-1201.0,-508.0,2
169,-76.0,-309.0,-148.0,-17.0,46.0,410.0,-308.0,-1201.0,-532.0,2
170,-75.0,-308.0,-152.0,-43.0,-53.0,499.0,-324.0,-1220.0,-550.0,2
171,-49.0,-308.0,-153.0,-86.0,-122.0,577.0,-233.0,-1190.0,-535.0,2
172,-35.0,-299.0,-142.0,-134.0,-147.0,576.0,-159.0,-1164.0,-515.0,2
173,-18.0,-291.0,-140.0,-164.0,-148.0,548.0,-113.0,-1129.0,-493.0,2
174,-5.0,-285.0,-139.0,-172.0,-128.0,515.0,-79.0,-1112.0,-486.0,2
175,6.0,-276.0,-134.0,-146.0,-83.0,454.0,-23.0,-1076.0,-488.0,2
176,23.0,-268.0,-139.0,-86.0,-27.0,388.0,24.0,-1044.0,-487.0,2
177,31.0,-259.0,-143.0,4.0,33.0,306.0,89.0,-1005.0,-486.0,2
178,48.0,-250.0,-139.0,127.0,113.0,243.0,158.0,-965.0,-478.0,2
179,69.0,-245.0,-135.0,222.0,176.0,174.0,222.0,-935.0,-480.0,2
180,87.0,-236.0,-134.0,297.0,234.0,113.0,284.0,-915.0,-473.0,2
181,102.0,-231.0,-139.0,344.0,296.0,49.0,332.0,-905.0,-485.0,2
182,111.0,-226.0,-136.0,361.0,359.0,-9.0,375.0,-896.0,-474.0,2
183,112.0,-225.0,-137.0,352.0,415.0,-66.0,385.0,-887.0,-475.0,2
184,111.0,-225.0,-128.0,312.0,464.0,-108.0,385.0,-890.0,-455.0,2
185,108.0,-224.0,-112.0,256.0,495.0,-147.0,375.0,-889.0,-376.0,2
186,103.0,-235.0,-106.0,225.0,506.0,-178.0,360.0,-923.0,-347.0,2
187,93.0,-243.0,-98.0,211.0,511.0,-216.0,314.0,-937.0,-327.0,2
188,77.0,-254.0,-97.0,205.0,504.0,-254.0,271.0,-979.0,-320.0,2
189,61.0,-251.0,-93.0,204.0,492.0,-291.0,224.0,-987.0,-301.0,2
190,48.0,-254.0,-90.0,208.0,459.0,-310.0,177.0,-980.0,-289.0,2
191,39.0,-245.0,-81.0,210.0,413.0,-325.0,126.0,-954.0,-272.0,2
192,28.0,-237.0,-80.0,221.0,364.0,-331.0,92.0,-916.0,-253.0,2
193,18.0,-229.0,-81.0,236.0,319.0,-327.0,46.0,-888.0,-243.0,2
194,10.0,-225.0,-84.0,246.0,283.0,-312.0,15.0,-874.0,-268.0,2
195,0.0,-218.0,-94.0,235.0,261.0,-306.0,-15.0,-864.0,-288.0,2
196,-10.0,-215.0,-94.0,199.0,246.0,-316.0,-50.0,-847.0,-310.0,2
197,-12.0,-210.0,-91.0,147.0,222.0,-338.0,-70.0,-830.0,-300.0,2
198,-18.0,-207.0,-86.0,100.0,180.0,-338.0,-89.0,-808.0,-274.0,2
199,-19.0,-205.0,-88.0,74.0,137.0,-346.0,-106.0,-805.0,-283.0,2
200,-19.0,-204.0,-89.0,67.0,109.0,-359.0,-108.0,-801.0,-295.0,2
201,-23.0,-203.0,-94.0,62.0,94.0,-405.0,-111.0,-792.0,-294.0,2
202,-20.0,-206.0,-91.0,61.0,63.0,-422.0,-105.0,-798.0,-306.0,2
203,-19.0,-209.0,-95.0,56.0,45.0,-423.0,-109.0,-824.0,-314.0,2
204,-30.0,-211.0,-98.0,43.0,45.0,-431.0,-132.0,-832.0,-323.0,2
205,-32.0,-209.0,-98.0,28.0,55.0,-450.0,-137.0,-827.0,-320.0,2
206,-24.0,-217.0,-104.0,19.0,43.0,-441.0,-123.0,-839.0,-327.0,2
207,-13.0,-216.0,-106.0,1.0,34.0,-408.0,-97.0,-851.0,-341.0,2
208,-10.0,-221.0,-96.0,-23.0,50.0,-395.0,-70.0,-860.0,-325.0,2
209,-8.0,-215.0,-90.0,-33.0,82.0,-418.0,-47.0,-849.0,-275.0,2
210,0.0,-217.0,-85.0,-14.0,81.0,-413.0,-15.0,-849.0,-258.0,2
211,7.0,-215.0,-76.0,15.0,71.0,-384.0,13.0,-833.0,-235.0,2
212,11.0,-215.0,-68.0,45.0,69.0,-371.0,17.0,-837.0,-202.0,2
213,15.0,-208.0,-61.0,80.0,64.0,-379.0,45.0,-816.0,-176.0,2
214,24.0,-201.0,-57.0,120.0,30.0,-376.0,58.0,-806.0,-159.0,2
215,32.0,-208.0,-59.0,159.0,-10.0,-342.0,94.0,-811.0,-169.0,2
216,29.0,-203.0,-62.0,176.0,-36.0,-326.0,97.0,-803.0,-173.0,2
217,34.0,-204.0,-66.0,170.0,-63.0,-316.0,113.0,-804.0,-192.0,2
218,32.0,-214.0,-78.0,149.0,-92.0,-312.0,101.0,-827.0,-217.0,2
219,43.0,-204.0,-73.0,117.0,-105.0,-341.0,135.0,-801.0,-212.0,2
220,49.0,-201.0,-77.0,84.0,-156.0,-313.0,162.0,-801.0,-223.0,2
221,51.0,-204.0,-76.0,36.0,-167.0,-287.0,172.0,-818.0,-232.0,2
222,53.0,-210.0,-79.0,-2.0,-164.0,-281.0,175.0,-834.0,-224.0,2
223,52.0,-210.0,-75.0,-32.0,-163.0,-273.0,185.0,-830.0,-231.0,2
224,50.0,-219.0,-81.0,-55.0,-157.0,-271.0,153.0,-847.0,-240.0,2
225,49.0,-212.0,-79.0,-78.0,-141.0,-288.0,170.0,-837.0,-246.0,2
226,57.0,-214.0,-74.0,-102.0,-144.0,-261.0,187.0,-839.0,-226.0,2
227,52.0,-215.0,-70.0,-114.0,-125.0,-238.0,179.0,-844.0,-210.0,2
228,52.0,-216.0,-64.0,-110.0,-92.0,-229.0,175.0,-850.0,-192.0,2
229,51.0,-217.0,-60.0,-97.0,-62.0,-218.0,164.0,-848.0,-172.0,2
230,40.0,-227.0,-65.0,-74.0,-36.0,-211.0,132.0,-863.0,-171.0,2
231,39.0,-220.0,-58.0,-49.0,5.0,-229.0,124.0,-859.0,-169.0,2
232,45.0,-223.0,-61.0,-27.0,5.0,-206.0,134.0,-865.0,-168.0,2
233,41.0,-227.0,-57.0,-17.0,13.0,-161.0,122.0,-873.0,-152.0,2
234,32.0,-230.0,-60.0,-9.0,35.0,-135.0,103.0,-885.0,-157.0,2
235,26.0,-229.0,-58.0,-9.0,52.0,-112.0,75.0,-890.0,-146.0,2
236,29.0,-232.0,-58.0,-8.0,54.0,-89.0,84.0,-892.0,-139.0,2
237,25.0,-229.0,-48.0,-7.0,45.0,-63.0,70.0,-898.0,-130.0,2
238,19.0,-230.0,-54.0,-8.0,48.0,-60.0,65.0,-897.0,-122.0,2
239,25.0,-230.0,-47.0,-12.0,33.0,-56.0,73.0,-900.0,-114.0,2
240,29.0,-234.0,-40.0,-15.0,-2.0,-7.0,77.0,-907.0,-93.0,2
241,27.0,-237.0,-42.0,-16.0,-14.0,42.0,84.0,-919.0,-87.0,2
242,28.0,-241.0,-35.0,-13.0,-17.0,61.0,89.0,-930.0,-74.0,2
243,28.0,-242.0,-37.0,-9.0,-25.0,80.0,78.0,-928.0,-77.0,2
244,23.0,-244.0,-40.0,-13.0,-34.0,89.0,72.0,-937.0,-75.0,2
245,17.0,-238.0,-36.0,-17.0,-36.0,71.0,58.0,-930.0,-67.0,2
246,26.0,-237.0,-35.0,-17.0,-67.0,80.0,70.0,-923.0,-62.0,2
247,26.0,-238.0,-37.0,-16.0,-101.0,119.0,72.0,-921.0,-56.0,2
248,23.0,-238.0,-28.0,-18.0,-112.0,138.0,63.0,-911.0,-41.0,2
249,20.0,-237.0,-32.0,-14.0,-121.0,148.0,50.0,-907.0,-41.0,2
250,16.0,-235.0,-26.0,-4.0,-132.0,145.0,29.0,-896.0,-31.0,2
251,10.0,-231.0,-30.0,11.0,-151.0,141.0,18.0,-892.0,-29.0,2
252,7.0,-228.0,-28.0,29.0,-182.0,139.0,0.0,-884.0,-32.0,2
253,1.0,-227.0,-33.0,50.0,-213.0,143.0,-10.0,-882.0,-45.0,2
254,5.0,-226.0,-34.0,58.0,-245.0,150.0,-8.0,-880.0,-61.0,2
255,-2.0,-230.0,-39.0,61.0,-260.0,132.0,-33.0,-886.0,-51.0,2
256,-2.0,-225.0,-44.0,48.0,-281.0,80.0,-17.0,-889.0,-108.0,2
257,11.0,-232.0,-45.0,19.0,-336.0,120.0,22.0,-900.0,-115.0,2
258,9.0,-235.0,-49.0,-17.0,-361.0,160.0,11.0,-915.0,-101.0,2
259,11.0,-241.0,-44.0,-49.0,-350.0,167.0,8.0,-917.0,-96.0,2
260,3.0,-245.0,-38.0,-74.0,-341.0,165.0,-14.0,-949.0,-87.0,2
261,0.0,-250.0,-37.0,-93.0,-347.0,159.0,-9.0,-975.0,-73.0,2
262,5.0,-260.0,-32.0,-104.0,-366.0,150.0,0.0,-1006.0,-52.0,2
263,11.0,-264.0,-38.0,-103.0,-379.0,95.0,12.0,-1017.0,-48.0,2
264,18.0,-265.0,-25.0,-79.0,-414.0,59.0,50.0,-1024.0,-44.0,2
265,32.0,-270.0,-38.0,-44.0,-451.0,93.0,93.0,-1055.0,-74.0,2
266,38.0,-272.0,-44.0,-24.0,-446.0,95.0,97.0,-1055.0,-87.0,2
267,34.0,-273.0,-45.0,-11.0,-428.0,77.0,101.0,-1065.0,-101.0,2
268,38.0,-273.0,-46.0,-3.0,-412.0,59.0,113.0,-1064.0,-101.0,2
269,37.0,-275.0,-45.0,6.0,-406.0,42.0,116.0,-1074.0,-98.0,2
270,42.0,-280.0,-43.0,14.0,-401.0,26.0,129.0,-1079.0,-92.0,2
271,39.0,-278.0,-42.0,23.0,-394.0,9.0,130.0,-1087.0,-84.0,2
272,43.0,-279.0,-38.0,26.0,-387.0,-5.0,131.0,-1090.0,-81.0,2
273,42.0,-285.0,-35.0,19.0,-379.0,-24.0,127.0,-1097.0,-66.0,2
274,43.0,-288.0,-33.0,4.0,-371.0,-28.0,135.0,-1119.0,-47.0,2
275,47.0,-295.0,-22.0,-12.0,-361.0,-32.0,150.0,-1145.0,-28.0,2
276,52.0,-306.0,-18.0,-19.0,-351.0,-33.0,165.0,-1170.0,-5.0,2
277,54.0,-312.0,-15.0,-16.0,-334.0,-34.0,193.0,-1206.0,22.0,2
278,59.0,-322.0,-16.0,-1.0,-319.0,-40.0,193.0,-1249.0,28.0,2
279,45.0,-317.0,2.0,20.0,-269.0,-126.0,152.0,-1240.0,22.0,2
280,58.0,-321.0,-16.0,53.0,-257.0,-169.0,205.0,-1235.0,15.0,2
281,67.0,-322.0,-10.0,97.0,-272.0,-123.0,214.0,-1238.0,21.0,2
282,58.0,-323.0,-9.0,140.0,-255.0,-99.0,197.0,-1237.0,25.0,2
283,51.0,-323.0,-13.0,186.0,-229.0,-116.0,177.0,-1233.0,38.0,2
284,42.0,-315.0,-21.0,232.0,-216.0,-177.0,127.0,-1213.0,19.0,2
285,44.0,-317.0,-29.0,273.0,-229.0,-220.0,138.0,-1226.0,-39.0,2
286,50.0,-323.0,-44.0,283.0,-253.0,-236.0,160.0,-1241.0,-95.0,2
287,51.0,-316.0,-46.0,266.0,-268.0,-254.0,157.0,-1216.0,-100.0,2
288,40.0,-312.0,-45.0,263.0,-268.0,-275.0,125.0,-1206.0,-111.0,2
289,38.0,-300.0,-44.0,265.0,-249.0,-309.0,108.0,-1175.0,-115.0,2
290,42.0,-298.0,-55.0,260.0,-236.0,-334.0,122.0,-1153.0,-135.0,2
291,39.0,-285.0,-55.0,253.0,-231.0,-328.0,114.0,-1117.0,-146.0,2
292,42.0,-280.0,-70.0,254.0,-215.0,-296.0,122.0,-1098.0,-181.0,2
293,42.0,-275.0,-86.0,256.0,-188.0,-289.0,126.0,-1085.0,-274.0,2
294,46.0,-275.0,-116.0,235.0,-164.0,-291.0,135.0,-1086.0,-379.0,2
295,45.0,-277.0,-135.0,191.0,-148.0,-315.0,137.0,-1098.0,-477.0,2
296,47.0,-287.0,-159.0,117.0,-141.0,-346.0,151.0,-1131.0,-552.0,2
297,40.0,-302.0,-168.0,46.0,-137.0,-389.0,128.0,-1185.0,-591.0,2
298,35.0,-311.0,-175.0,-36.0,-133.0,-429.0,107.0,-1221.0,-616.0,2
299,24.0,-318.0,-171.0,-136.0,-123.0,-477.0,72.0,-1256.0,-618.0,2
300,10.0,-316.0,-148.0,-254.0,-107.0,-536.0,13.0,-1239.0,-521.0,2
301,1.0,-317.0,-137.0,-337.0,-129.0,-553.0,-27.0,-1240.0,-470.0,2
302,-1.0,-304.0,-118.0,-373.0,-148.0,-540.0,-47.0,-1171.0,-403.0,2
303,-8.0,-277.0,-112.0,-365.0,-162.0,-527.0,-66.0,-1101.0,-372.0,2
304,-10.0,-261.0,-109.0,-326.0,-170.0,-493.0,-71.0,-1007.0,-364.0,2
305,-12.0,-230.0,-109.0,-280.0,-183.0,-461.0,-71.0,-905.0,-368.0,2
306,-18.0,-211.0,-110.0,-240.0,-213.0,-440.0,-94.0,-829.0,-377.0,2
307,-30.0,-195.0,-106.0,-217.0,-253.0,-426.0,-124.0,-758.0,-371.0,2
308,-37.0,-182.0,-105.0,-193.0,-313.0,-406.0,-155.0,-709.0,-360.0,2
309,-46.0,-177.0,-110.0,-169.0,-394.0,-393.0,-193.0,-686.0,-365.0,2
310,-56.0,-174.0,-109.0,-154.0,-480.0,-369.0,-228.0,-678.0,-382.0,2
311,-60.0,-172.0,-100.0,-161.0,-561.0,-338.0,-254.0,-681.0,-402.0,2
312,-63.0,-173.0,-127.0,-198.0,-620.0,-300.0,-240.0,-703.0,-449.0,2
313,-60.0,-183.0,-113.0,-270.0,-655.0,-264.0,-257.0,-722.0,-395.0,2
314,-65.0,-196.0,-88.0,-323.0,-675.0,-227.0,-272.0,-744.0,-301.0,2
315,-56.0,-208.0,-92.0,-298.0,-689.0,-185.0,-250.0,-801.0,-285.0,2
316,-50.0,-219.0,-86.0,-223.0,-692.0,-131.0,-214.0,-845.0,-279.0,2
317,-35.0,-231.0,-89.0,-119.0,-681.0,-92.0,-167.0,-876.0,-274.0,2
318,-23.0,-234.0,-84.0,-37.0,-657.0,-55.0,-119.0,-907.0,-271.0,2
319,-7.0,-245.0,-87.0,33.0,-613.0,-26.0,-74.0,-937.0,-263.0,2
320,3.0,-252.0,-84.0,95.0,-554.0,4.0,-28.0,-963.0,-256.0,2
321,13.0,-258.0,-89.0,151.0,-488.0,35.0,7.0,-1003.0,-265.0,2
322,23.0,-261.0,-93.0,192.0,-422.0,69.0,45.0,-1012.0,-278.0,2
323,30.0,-263.0,-92.0,205.0,-355.0,105.0,80.0,-1035.0,-287.0,2
324,39.0,-261.0,-89.0,195.0,-291.0,139.0,112.0,-1034.0,-284.0,2
325,51.0,-260.0,-90.0,177.0,-230.0,177.0,155.0,-1028.0,-270.0,2
326,57.0,-260.0,-90.0,155.0,-181.0,229.0,192.0,-1025.0,-278.0,2
327,61.0,-259.0,-89.0,123.0,-118.0,282.0,201.0,-1020.0,-284.0,2
328,59.0,-255.0,-88.0,90.0,-58.0,316.0,216.0,-993.0,-283.0,2
329,68.0,-248.0,-91.0,63.0,-8.0,349.0,229.0,-971.0,-287.0,2
330,69.0,-245.0,-90.0,46.0,9.0,403.0,230.0,-954.0,-293.0,2
331,65.0,-243.0,-95.0,32.0,35.0,455.0,220.0,-944.0,-304.0,2
332,61.0,-241.0,-96.0,11.0,63.0,477.0,205.0,-939.0,-304.0,2
333,55.0,-238.0,-95.0,-15.0,78.0,495.0,188.0,-928.0,-305.0,2
334,49.0,-235.0,-91.0,-47.0,82.0,526.0,154.0,-919.0,-289.0,2
335,41.0,-232.0,-82.0,-76.0,89.0,548.0,127.0,-904.0,-272.0,2
336,36.0,-226.0,-77.0,-85.0,92.0,557.0,112.0,-893.0,-240.0,2
337,29.0,-225.0,-65.0,-65.0,88.0,566.0,95.0,-861.0,-210.0,2
338,29.0,-219.0,-66.0,-5.0,91.0,568.0,88.0,-847.0,-185.0,2
339,28.0,-215.0,-64.0,58.0,101.0,568.0,84.0,-817.0,-174.0,2
340,21.0,-209.0,-64.0,125.0,121.0,557.0,45.0,-803.0,-178.0,2
341,19.0,-209.0,-72.0,178.0,162.0,531.0,26.0,-796.0,-209.0,2
342,10.0,-203.0,-73.0,203.0,208.0,491.0,7.0,-796.0,-227.0,2
343,6.0,-202.0,-83.0,196.0,250.0,471.0,-2.0,-800.0,-258.0,2
344,-1.0,-200.0,-82.0,167.0,286.0,453.0,-29.0,-791.0,-258.0,2
345,-6.0,-199.0,-79.0,130.0,327.0,433.0,-59.0,-787.0,-250.0,2
346,-18.0,-197.0,-73.0,104.0,365.0,407.0,-107.0,-776.0,-230.0,2
347,-16.0,-197.0,-68.0,88.0,404.0,393.0,-94.0,-775.0,-208.0,2
348,-24.0,-192.0,-81.0,61.0,407.0,377.0,-125.0,-779.0,-258.0,2
349,-22.0,-197.0,-79.0,2.0,427.0,378.0,-120.0,-780.0,-245.0,2
350,-30.0,-198.0,-70.0,-58.0,474.0,384.0,-143.0,-777.0,-208.0,2
351,-32.0,-198.0,-64.0,-92.0,507.0,397.0,-150.0,-781.0,-188.0,2
352,-31.0,-200.0,-65.0,-117.0,525.0,399.0,-162.0,-783.0,-179.0,2
353,-33.0,-196.0,-58.0,-136.0,532.0,402.0,-153.0,-774.0,-167.0,2
354,-32.0,-204.0,-63.0,-138.0,521.0,426.0,-148.0,-795.0,-165.0,2
355,-38.0,-200.0,-61.0,-145.0,543.0,418.0,-167.0,-783.0,-153.0,2
356,-34.0,-204.0,-56.0,-147.0,550.0,377.0,-160.0,-802.0,-142.0,2
357,-30.0,-208.0,-51.0,-147.0,526.0,350.0,-145.0,-803.0,-138.0,2
358,-30.0,-209.0,-54.0,-143.0,496.0,317.0,-136.0,-810.0,-139.0,2
359,-25.0,-213.0,-53.0,-129.0,462.0,311.0,-131.0,-834.0,-152.0,2
360,-32.0,-214.0,-55.0,-116.0,452.0,269.0,-140.0,-831.0,-142.0,2
361,-31.0,-216.0,-56.0,-109.0,434.0,217.0,-144.0,-828.0,-154.0,2
362,-28.0,-218.0,-59.0,-99.0,405.0,164.0,-131.0,-840.0,-157.0,2
363,-28.0,-216.0,-58.0,-100.0,383.0,120.0,-130.0,-839.0,-164.0,2
364,-29.0,-217.0,-55.0,-93.0,368.0,75.0,-134.0,-835.0,-144.0,2
365,-32.0,-213.0,-52.0,-74.0,357.0,36.0,-141.0,-832.0,-140.0,2
366,-23.0,-220.0,-54.0,-56.0,356.0,3.0,-130.0,-847.0,-140.0,2
367,-26.0,-215.0,-54.0,-42.0,356.0,-30.0,-137.0,-845.0,-141.0,2
368,-27.0,-224.0,-54.0,-39.0,365.0,-66.0,-139.0,-855.0,-137.0,2
369,-19.0,-222.0,-49.0,-37.0,381.0,-77.0,-104.0,-865.0,-128.0,2
370,-27.0,-229.0,-48.0,-30.0,389.0,-63.0,-148.0,-884.0,-99.0,2
371,-26.0,-235.0,-36.0,-16.0,441.0,-108.0,-128.0,-894.0,-62.0,2
372,-33.0,-238.0,-38.0,15.0,447.0,-140.0,-157.0,-903.0,-72.0,2
373,-30.0,-236.0,-35.0,42.0,443.0,-152.0,-152.0,-911.0,-67.0,2
374,-24.0,-243.0,-33.0,61.0,453.0,-149.0,-129.0,-926.0,-62.0,2
375,-11.0,-248.0,-34.0,81.0,471.0,-140.0,-89.0,-943.0,-48.0,2
376,-6.0,-246.0,-33.0,99.0,495.0,-137.0,-57.0,-958.0,-51.0,2
377,2.0,-250.0,-32.0,106.0,521.0,-137.0,-25.0,-965.0,-57.0,2
378,7.0,-251.0,-35.0,107.0,548.0,-139.0,-2.0,-974.0,-65.0,2
379,13.0,-253.0,-39.0,102.0,584.0,-137.0,27.0,-991.0,-80.0,2
380,22.0,-258.0,-44.0,89.0,613.0,-138.0,53.0,-1006.0,-94.0,2
381,28.0,-260.0,-48.0,70.0,643.0,-139.0,75.0,-1011.0,-108.0,2
382,33.0,-262.0,-48.0,48.0,670.0,-143.0,92.0,-1027.0,-119.0,2
383,34.0,-268.0,-43.0,31.0,693.0,-148.0,94.0,-1029.0,-106.0,2
384,32.0,-268.0,-41.0,25.0,705.0,-156.0,97.0,-1043.0,-88.0,2
385,26.0,-266.0,-38.0,31.0,710.0,-166.0,77.0,-1047.0,-75.0,2
386,25.0,-268.0,-32.0,46.0,708.0,-174.0,73.0,-1044.0,-70.0,2
387,19.0,-269.0,-37.0,65.0,700.0,-184.0,52.0,-1048.0,-67.0,2
388,8.0,-265.0,-41.0,82.0,687.0,-188.0,11.0,-1037.0,-82.0,2
389,11.0,-272.0,-54.0,95.0,628.0,-119.0,-4.0,-1046.0,-116.0,2
390,-18.0,-261.0,-67.0,88.0,623.0,-110.0,-76.0,-1032.0,-191.0,2
391,-37.0,-259.0,-72.0,31.0,618.0,-133.0,-148.0,-1023.0,-212.0,2
392,-46.0,-265.0,-67.0,-25.0,586.0,-121.0,-198.0,-1049.0,-211.0,2
393,-50.0,-277.0,-67.0,-57.0,554.0,-79.0,-235.0,-1078.0,-202.0,2
394,-60.0,-285.0,-68.0,-68.0,552.0,-43.0,-267.0,-1109.0,-186.0,2
395,-67.0,-293.0,-58.0,-79.0,562.0,-19.0,-286.0,-1133.0,-171.0,2
396,-67.0,-302.0,-48.0,-78.0,570.0,12.0,-286.0,-1148.0,-120.0,2
397,-67.0,-301.0,-37.0,-66.0,574.0,40.0,-293.0,-1166.0,-92.0,2
398,-63.0,-307.0,-33.0,-55.0,585.0,79.0,-284.0,-1172.0,-51.0,2
399,-60.0,-303.0,-18.0,-37.0,603.0,119.0,-265.0,-1179.0,-35.0,2
400,-62.0,-310.0,-27.0,-8.0,620.0,168.0,-284.0,-1189.0,-28.0,2
401,-66.0,-306.0,-23.0,21.0,651.0,171.0,-285.0,-1173.0,-17.0,2
402,-61.0,-310.0,-29.0,50.0,659.0,185.0,-280.0,-1188.0,-40.0,2
403,-59.0,-313.0,-34.0,71.0,652.0,192.0,-254.0,-1197.0,-53.0,2
404,-55.0,-313.0,-39.0,84.0,635.0,203.0,-242.0,-1192.0,-71.0,2
405,-47.0,-310.0,-39.0,89.0,618.0,206.0,-210.0,-1194.0,-78.0,2
406,-38.0,-308.0,-43.0,96.0,601.0,217.0,-181.0,-1197.0,-90.0,2
407,-30.0,-308.0,-48.0,109.0,587.0,221.0,-151.0,-1198.0,-115.0,2
408,-26.0,-308.0,-51.0,121.0,575.0,236.0,-123.0,-1195.0,-113.0,2
409,-16.0,-313.0,-51.0,131.0,561.0,248.0,-103.0,-1199.0,-127.0,2
410,-14.0,-311.0,-52.0,130.0,545.0,266.0,-94.0,-1202.0,-132.0,2
411,-15.0,-314.0,-51.0,126.0,523.0,274.0,-100.0,-1203.0,-132.0,2
412,-21.0,-313.0,-54.0,120.0,491.0,285.0,-103.0,-1206.0,-136.0,2
413,-14.0,-308.0,-61.0,119.0,450.0,295.0,-94.0,-1191.0,-162.0,2
414,-10.0,-311.0,-83.0,141.0,399.0,339.0,-91.0,-1195.0,-214.0,2
415,-8.0,-296.0,-95.0,156.0,401.0,330.0,-66.0,-1172.0,-282.0,2
416,-14.0,-293.0,-101.0,162.0,404.0,300.0,-91.0,-1144.0,-327.0,2
417,-22.0,-290.0,-118.0,160.0,389.0,285.0,-113.0,-1136.0,-397.0,2
418,-30.0,-285.0,-132.0,139.0,366.0,281.0,-156.0,-1119.0,-447.0,2
419,-40.0,-281.0,-138.0,106.0,329.0,285.0,-190.0,-1099.0,-492.0,2
420,-47.0,-277.0,-146.0,71.0,277.0,306.0,-208.0,-1071.0,-519.0,2
421,-46.0,-265.0,-146.0,36.0,210.0,327.0,-208.0,-1053.0,-524.0,2
422,-30.0,-262.0,-149.0,10.0,164.0,360.0,-169.0,-1036.0,-526.0,2
423,-17.0,-259.0,-151.0,-24.0,148.0,381.0,-120.0,-1029.0,-534.0,2
424,-9.0,-258.0,-148.0,-75.0,158.0,389.0,-79.0,-1012.0,-533.0,2
425,4.0,-254.0,-149.0,-127.0,184.0,381.0,-24.0,-1000.0,-524.0,2
426,19.0,-249.0,-139.0,-172.0,217.0,372.0,24.0,-964.0,-489.0,2
427,32.0,-246.0,-128.0,-177.0,253.0,358.0,89.0,-956.0,-445.0,2
428,50.0,-246.0,-123.0,-143.0,289.0,339.0,147.0,-951.0,-434.0,2
429,63.0,-240.0,-119.0,-82.0,321.0,308.0,203.0,-921.0,-410.0,2
430,78.0,-234.0,-118.0,-9.0,349.0,273.0,248.0,-902.0,-411.0,2
431,84.0,-227.0,-121.0,65.0,382.0,222.0,292.0,-876.0,-415.0,2
432,91.0,-223.0,-123.0,137.0,404.0,184.0,317.0,-864.0,-421.0,2
433,93.0,-220.0,-121.0,169.0,419.0,136.0,325.0,-859.0,-412.0,2
434,92.0,-221.0,-117.0,183.0,423.0,95.0,328.0,-866.0,-394.0,2
435,98.0,-228.0,-118.0,182.0,423.0,48.0,335.0,-902.0,-399.0,2
436,84.0,-229.0,-117.0,168.0,427.0,-1.0,305.0,-903.0,-387.0,2
437,77.0,-236.0,-109.0,151.0,427.0,-46.0,272.0,-915.0,-362.0,2
438,72.0,-247.0,-110.0,139.0,435.0,-89.0,258.0,-960.0,-365.0,2
439,67.0,-250.0,-104.0,111.0,458.0,-144.0,231.0,-973.0,-349.0,2
440,55.0,-244.0,-95.0,78.0,464.0,-192.0,193.0,-952.0,-310.0,2
441,44.0,-241.0,-85.0,63.0,450.0,-229.0,145.0,-931.0,-263.0,2
442,33.0,-241.0,-60.0,82.0,419.0,-243.0,105.0,-915.0,-195.0,2
443,19.0,-240.0,-57.0,157.0,392.0,-250.0,68.0,-921.0,-157.0,2
444,16.0,-234.0,-71.0,249.0,354.0,-251.0,31.0,-906.0,-218.0,2
445,5.0,-233.0,-70.0,287.0,308.0,-257.0,-1.0,-900.0,-221.0,2
446,-3.0,-233.0,-79.0,284.0,262.0,-265.0,-26.0,-908.0,-258.0,2
447,-7.0,-236.0,-82.0,251.0,211.0,-287.0,-38.0,-913.0,-254.0,2
448,-10.0,-234.0,-84.0,215.0,152.0,-320.0,-52.0,-905.0,-253.0,2
449,-12.0,-234.0,-80.0,193.0,85.0,-331.0,-69.0,-904.0,-256.0,2
450,-17.0,-235.0,-88.0,180.0,40.0,-354.0,-90.0,-911.0,-267.0,2
451,-24.0,-234.0,-91.0,160.0,5.0,-395.0,-107.0,-906.0,-281.0,2
452,-26.0,-233.0,-87.0,128.0,-61.0,-424.0,-123.0,-910.0,-283.0,2
453,-32.0,-234.0,-90.0,101.0,-110.0,-419.0,-137.0,-911.0,-283.0,2
454,-33.0,-234.0,-89.0,76.0,-140.0,-411.0,-154.0,-909.0,-278.0,2
455,-35.0,-237.0,-87.0,55.0,-156.0,-405.0,-177.0,-917.0,-284.0,2
456,-31.0,-231.0,-86.0,26.0,-175.0,-396.0,-148.0,-912.0,-281.0,2
457,-21.0,-232.0,-81.0,-4.0,-193.0,-354.0,-111.0,-904.0,-268.0,2
458,-15.0,-228.0,-74.0,-25.0,-186.0,-325.0,-95.0,-894.0,-228.0,2
459,-11.0,-225.0,-69.0,-24.0,-167.0,-323.0,-66.0,-878.0,-206.0,2
460,-3.0,-221.0,-62.0,-8.0,-164.0,-316.0,-32.0,-858.0,-169.0,2
461,5.0,-217.0,-53.0,20.0,-172.0,-288.0,-1.0,-843.0,-140.0,2
462,11.0,-212.0,-52.0,67.0,-173.0,-273.0,14.0,-827.0,-131.0,2
463,12.0,-208.0,-54.0,124.0,-182.0,-270.0,24.0,-810.0,-142.0,2
464,19.0,-203.0,-55.0,157.0,-198.0,-283.0,50.0,-786.0,-158.0,2
465,24.0,-197.0,-61.0,167.0,-238.0,-261.0,81.0,-787.0,-168.0,2
466,33.0,-197.0,-61.0,151.0,-272.0,-237.0,102.0,-787.0,-185.0,2
467,41.0,-198.0,-63.0,125.0,-291.0,-225.0,127.0,-790.0,-171.0,2
468,46.0,-200.0,-63.0,105.0,-312.0,-222.0,139.0,-790.0,-179.0,2
469,51.0,-203.0,-64.0,86.0,-327.0,-217.0,162.0,-798.0,-188.0,2
470,52.0,-206.0,-71.0,62.0,-336.0,-220.0,178.0,-809.0,-202.0,2
471,56.0,-209.0,-68.0,30.0,-342.0,-219.0,198.0,-822.0,-207.0,2
472,58.0,-211.0,-69.0,-7.0,-344.0,-226.0,206.0,-828.0,-203.0,2
473,61.0,-211.0,-70.0,-43.0,-344.0,-230.0,218.0,-834.0,-205.0,2
474,64.0,-212.0,-68.0,-71.0,-338.0,-238.0,219.0,-840.0,-201.0,2
475,62.0,-214.0,-66.0,-91.0,-332.0,-237.0,216.0,-840.0,-194.0,2
476,62.0,-214.0,-71.0,-108.0,-326.0,-239.0,212.0,-846.0,-201.0,2
477,61.0,-212.0,-75.0,-127.0,-298.0,-263.0,219.0,-833.0,-202.0,2
478,67.0,-213.0,-67.0,-143.0,-305.0,-242.0,228.0,-845.0,-204.0,2
479,64.0,-211.0,-63.0,-157.0,-287.0,-208.0,227.0,-840.0,-188.0,2
480,61.0,-216.0,-61.0,-166.0,-249.0,-192.0,212.0,-836.0,-175.0,2
481,56.0,-214.0,-57.0,-170.0,-218.0,-170.0,199.0,-845.0,-160.0,2
482,55.0,-216.0,-54.0,-172.0,-198.0,-151.0,194.0,-857.0,-142.0,2
483,54.0,-218.0,-52.0,-172.0,-177.0,-121.0,185.0,-855.0,-125.0,2
484,52.0,-223.0,-51.0,-160.0,-160.0,-97.0,180.0,-871.0,-121.0,2
485,52.0,-224.0,-47.0,-143.0,-141.0,-72.0,181.0,-869.0,-110.0,2
486,52.0,-224.0,-44.0,-122.0,-128.0,-51.0,174.0,-869.0,-98.0,2
487,50.0,-223.0,-43.0,-99.0,-111.0,-26.0,159.0,-878.0,-98.0,2
488,47.0,-230.0,-48.0,-82.0,-100.0,-5.0,149.0,-884.0,-110.0,2
489,45.0,-228.0,-50.0,-73.0,-94.0,17.0,148.0,-888.0,-120.0,2
490,41.0,-229.0,-48.0,-68.0,-89.0,33.0,145.0,-887.0,-118.0,2
491,42.0,-230.0,-53.0,-70.0,-86.0,50.0,136.0,-895.0,-126.0,2
492,35.0,-230.0,-51.0,-74.0,-83.0,63.0,121.0,-885.0,-121.0,2
493,32.0,-231.0,-53.0,-78.0,-82.0,83.0,101.0,-901.0,-124.0,2
494,20.0,-227.0,-31.0,-87.0,-66.0,35.0,70.0,-890.0,-118.0,2
495,34.0,-228.0,-48.0,-93.0,-110.0,68.0,99.0,-891.0,-109.0,2
496,38.0,-235.0,-43.0,-98.0,-137.0,125.0,103.0,-910.0,-92.0,2
497,29.0,-235.0,-43.0,-107.0,-122.0,146.0,87.0,-915.0,-75.0,2
498,27.0,-236.0,-37.0,-109.0,-112.0,153.0,66.0,-911.0,-52.0,2
499,22.0,-237.0,-28.0,-105.0,-116.0,163.0,60.0,-916.0,-38.0,2
500,17.0,-238.0,-21.0,-92.0,-123.0,172.0,39.0,-912.0,-22.0,2
501,15.0,-239.0,-27.0,-71.0,-136.0,186.0,39.0,-919.0,-20.0,2
502,14.0,-237.0,-25.0,-45.0,-149.0,200.0,29.0,-915.0,-19.0,2
503,12.0,-238.0,-21.0,-19.0,-169.0,215.0,26.0,-911.0,-16.0,2
504,14.0,-237.0,-26.0,13.0,-190.0,225.0,20.0,-912.0,-21.0,2
505,14.0,-242.0,-33.0,33.0,-203.0,232.0,19.0,-922.0,-48.0,2
506,19.0,-241.0,-41.0,41.0,-211.0,238.0,32.0,-944.0,-75.0,2
507,18.0,-247.0,-43.0,30.0,-216.0,243.0,39.0,-953.0,-93.0,2
508,22.0,-251.0,-45.0,12.0,-215.0,246.0,42.0,-971.0,-101.0,2
509,6.0,-276.0,-59.0,-6.0,-213.0,238.0,-12.0,-1030.0,-112.0,2
510,18.0,-255.0,-35.0,-25.0,-192.0,163.0,62.0,-980.0,-91.0,2
511,27.0,-257.0,-40.0,-23.0,-237.0,185.0,73.0,-999.0,-75.0,2
512,28.0,-259.0,-36.0,-6.0,-258.0,221.0,78.0,-1007.0,-65.0,2
513,28.0,-260.0,-38.0,9.0,-245.0,216.0,78.0,-1015.0,-83.0,2
514,29.0,-263.0,-42.0,14.0,-235.0,191.0,85.0,-1034.0,-84.0,2
515,26.0,-267.0,-42.0,9.0,-233.0,165.0,72.0,-1034.0,-89.0,2
516,28.0,-266.0,-45.0,3.0,-243.0,145.0,74.0,-1033.0,-90.0,2
517,26.0,-267.0,-43.0,-1.0,-255.0,124.0,79.0,-1046.0,-99.0,2
518,25.0,-269.0,-42.0,-2.0,-266.0,106.0,70.0,-1044.0,-96.0,2
519,25.0,-269.0,-43.0,-1.0,-275.0,92.0,77.0,-1046.0,-103.0,2
520,26.0,-268.0,-46.0,-7.0,-278.0,80.0,78.0,-1049.0,-113.0,2
521,28.0,-269.0,-48.0,-23.0,-278.0,63.0,74.0,-1072.0,-116.0,2
522,25.0,-275.0,-35.0,-45.0,-274.0,52.0,76.0,-1074.0,-86.0,2
523,35.0,-283.0,-34.0,-62.0,-271.0,44.0,90.0,-1098.0,-66.0,2
524,38.0,-288.0,-34.0,-71.0,-260.0,45.0,117.0,-1120.0,-45.0,2
525,49.0,-295.0,-26.0,-64.0,-245.0,41.0,142.0,-1137.0,-22.0,2
526,51.0,-301.0,-22.0,-44.0,-227.0,36.0,164.0,-1160.0,-12.0,2
527,36.0,-302.0,-7.0,-25.0,-200.0,12.0,55.0,-1229.0,-18.0,2
528,53.0,-304.0,-24.0,-19.0,-159.0,-92.0,170.0,-1177.0,13.0,2
529,61.0,-312.0,-20.0,-18.0,-209.0,-72.0,208.0,-1210.0,-4.0,2
530,62.0,-316.0,-9.0,-15.0,-228.0,-36.0,207.0,-1210.0,41.0,2
531,53.0,-316.0,-8.0,6.0,-217.0,-38.0,180.0,-1213.0,43.0,2
532,46.0,-316.0,-7.0,36.0,-210.0,-50.0,151.0,-1211.0,37.0,2
533,40.0,-309.0,-20.0,69.0,-221.0,-70.0,129.0,-1204.0,13.0,2
534,41.0,-313.0,-34.0,97.0,-238.0,-83.0,125.0,-1201.0,-48.0,2
535,42.0,-307.0,-44.0,100.0,-248.0,-99.0,125.0,-1181.0,-93.0,2
536,47.0,-302.0,-49.0,90.0,-246.0,-122.0,141.0,-1170.0,-118.0,2
537,45.0,-296.0,-52.0,75.0,-219.0,-184.0,151.0,-1159.0,-124.0,2
538,50.0,-291.0,-58.0,47.0,-211.0,-263.0,173.0,-1145.0,-171.0,2
539,57.0,-291.0,-61.0,28.0,-223.0,-243.0,191.0,-1137.0,-166.0,2
540,61.0,-289.0,-68.0,19.0,-192.0,-216.0,202.0,-1123.0,-190.0,2
541,57.0,-281.0,-74.0,17.0,-145.0,-229.0,197.0,-1100.0,-224.0,2
542,54.0,-280.0,-94.0,7.0,-118.0,-249.0,197.0,-1095.0,-284.0,2
543,57.0,-280.0,-113.0,-20.0,-104.0,-276.0,194.0,-1100.0,-354.0,2
544,58.0,-285.0,-120.0,-66.0,-91.0,-298.0,198.0,-1115.0,-405.0,2
545,59.0,-291.0,-126.0,-124.0,-73.0,-327.0,205.0,-1137.0,-427.0,2
546,55.0,-300.0,-125.0,-198.0,-55.0,-351.0,190.0,-1171.0,-431.0,2
547,52.0,-306.0,-119.0,-253.0,-40.0,-386.0,166.0,-1198.0,-411.0,2
548,37.0,-310.0,-109.0,-302.0,-25.0,-415.0,112.0,-1218.0,-379.0,2
549,32.0,-318.0,-104.0,-333.0,-16.0,-425.0,82.0,-1232.0,-345.0,2
550,24.0,-315.0,-100.0,-338.0,-16.0,-415.0,64.0,-1210.0,-329.0,2
551,18.0,-304.0,-96.0,-313.0,-23.0,-399.0,47.0,-1177.0,-313.0,2
552,19.0,-290.0,-99.0,-268.0,-37.0,-369.0,29.0,-1119.0,-322.0,2
553,10.0,-266.0,-105.0,-212.0,-51.0,-331.0,15.0,-1050.0,-323.0,2
554,10.0,-256.0,-103.0,-155.0,-78.0,-285.0,6.0,-976.0,-339.0,2
555,4.0,-237.0,-108.0,-111.0,-105.0,-241.0,-8.0,-908.0,-362.0,2
556,-5.0,-214.0,-117.0,-86.0,-140.0,-209.0,-46.0,-843.0,-377.0,2
557,-17.0,-195.0,-114.0,-89.0,-179.0,-185.0,-74.0,-792.0,-385.0,2
558,-22.0,-190.0,-114.0,-94.0,-221.0,-164.0,-107.0,-742.0,-383.0,2
559,-29.0,-182.0,-119.0,-106.0,-266.0,-150.0,-132.0,-706.0,-384.0,2
560,-43.0,-174.0,-123.0,-121.0,-308.0,-142.0,-164.0,-688.0,-418.0,2
561,-38.0,-174.0,-109.0,-143.0,-353.0,-138.0,-205.0,-690.0,-480.0,2
562,-54.0,-169.0,-144.0,-190.0,-394.0,-137.0,-232.0,-657.0,-466.0,2
563,-59.0,-166.0,-132.0,-262.0,-430.0,-135.0,-253.0,-660.0,-469.0,2
564,-65.0,-167.0,-134.0,-348.0,-459.0,-128.0,-267.0,-676.0,-448.0,2
565,-67.0,-180.0,-116.0,-421.0,-475.0,-117.0,-280.0,-707.0,-398.0,2
566,-63.0,-195.0,-106.0,-459.0,-480.0,-99.0,-277.0,-739.0,-349.0,2
567,-61.0,-206.0,-93.0,-444.0,-476.0,-77.0,-281.0,-791.0,-288.0,2
568,-53.0,-218.0,-93.0,-373.0,-456.0,-52.0,-241.0,-840.0,-292.0,2
569,-42.0,-228.0,-98.0,-289.0,-431.0,-25.0,-195.0,-876.0,-304.0,2
570,-31.0,-235.0,-101.0,-212.0,-400.0,-5.0,-157.0,-904.0,-326.0,2
571,-25.0,-244.0,-103.0,-158.0,-355.0,16.0,-129.0,-939.0,-332.0,2
572,-11.0,-251.0,-106.0,-130.0,-302.0,41.0,-92.0,-977.0,-344.0,2
573,-6.0,-256.0,-105.0,-122.0,-248.0,72.0,-61.0,-1006.0,-337.0,2
574,8.0,-260.0,-100.0,-124.0,-198.0,102.0,-8.0,-1017.0,-327.0,2
575,19.0,-266.0,-96.0,-131.0,-152.0,131.0,23.0,-1037.0,-303.0,2
576,26.0,-266.0,-90.0,-131.0,-103.0,165.0,65.0,-1035.0,-286.0,2
577,39.0,-265.0,-76.0,-117.0,-70.0,198.0,106.0,-1029.0,-250.0,2
578,36.0,-265.0,-68.0,-80.0,-38.0,246.0,114.0,-1029.0,-199.0,2
579,43.0,-263.0,-66.0,-21.0,7.0,281.0,132.0,-1025.0,-202.0,2
580,51.0,-261.0,-76.0,38.0,51.0,309.0,160.0,-1014.0,-226.0,2
581,52.0,-259.0,-84.0,65.0,95.0,349.0,163.0,-1017.0,-262.0,2
582,52.0,-257.0,-88.0,58.0,144.0,366.0,173.0,-1005.0,-261.0,2
583,54.0,-255.0,-93.0,46.0,184.0,378.0,174.0,-993.0,-272.0,2
584,52.0,-254.0,-91.0,33.0,217.0,385.0,166.0,-995.0,-290.0,2
585,50.0,-254.0,-89.0,16.0,246.0,396.0,156.0,-989.0,-285.0,2
586,39.0,-252.0,-81.0,7.0,275.0,406.0,119.0,-975.0,-257.0,2
587,30.0,-253.0,-86.0,13.0,295.0,414.0,88.0,-976.0,-257.0,2
588,24.0,-250.0,-79.0,24.0,304.0,428.0,74.0,-970.0,-251.0,2
589,24.0,-246.0,-80.0,33.0,312.0,444.0,55.0,-974.0,-245.0,2
590,15.0,-248.0,-76.0,39.0,326.0,450.0,29.0,-965.0,-233.0,2
591,8.0,-245.0,-70.0,41.0,339.0,458.0,1.0,-949.0,-219.0,2
592,2.0,-242.0,-72.0,51.0,347.0,461.0,-11.0,-941.0,-209.0,2
593,-3.0,-241.0,-73.0,65.0,351.0,465.0,-24.0,-926.0,-214.0,2
594,-2.0,-239.0,-73.0,76.0,358.0,460.0,-34.0,-913.0,-224.0,2
595,-10.0,-229.0,-70.0,85.0,372.0,460.0,-65.0,-897.0,-206.0,2
596,-12.0,-230.0,-71.0,94.0,387.0,463.0,-102.0,-879.0,-216.0,2
597,-13.0,-220.0,-81.0,102.0,413.0,447.0,-81.0,-867.0,-233.0,2
598,-21.0,-215.0,-81.0,77.0,408.0,423.0,-117.0,-845.0,-256.0,2
599,-28.0,-214.0,-72.0,41.0,439.0,430.0,-138.0,-807.0,-222.0,2
600,-28.0,-204.0,-75.0,18.0,466.0,440.0,-143.0,-810.0,-240.0,2
601,-33.0,-204.0,-81.0,-12.0,476.0,464.0,-159.0,-809.0,-250.0,2
602,-43.0,-200.0,-80.0,-62.0,504.0,460.0,-204.0,-788.0,-225.0,2
603,-47.0,-200.0,-68.0,-106.0,529.0,434.0,-206.0,-779.0,-204.0,2
604,-48.0,-202.0,-68.0,-135.0,526.0,416.0,-202.0,-786.0,-202.0,2
605,-45.0,-203.0,-68.0,-162.0,517.0,409.0,-211.0,-784.0,-194.0,2
606,-45.0,-201.0,-59.0,-180.0,505.0,393.0,-209.0,-790.0,-170.0,2
607,-45.0,-203.0,-56.0,-184.0,484.0,369.0,-206.0,-789.0,-159.0,2
608,-46.0,-204.0,-51.0,-176.0,464.0,338.0,-201.0,-792.0,-143.0,2
609,-40.0,-206.0,-54.0,-162.0,444.0,308.0,-193.0,-798.0,-144.0,2
610,-42.0,-204.0,-51.0,-150.0,425.0,271.0,-187.0,-801.0,-144.0,2
611,-40.0,-206.0,-50.0,-137.0,407.0,238.0,-188.0,-801.0,-142.0,2
612,-41.0,-208.0,-52.0,-118.0,390.0,202.0,-185.0,-800.0,-136.0,2
613,-38.0,-210.0,-53.0,-97.0,371.0,171.0,-178.0,-807.0,-134.0,2
614,-33.0,-218.0,-76.0,-79.0,350.0,139.0,-124.0,-801.0,-133.0,2
615,-38.0,-219.0,-50.0,-60.0,317.0,161.0,-170.0,-838.0,-152.0,2
616,-39.0,-216.0,-50.0,-56.0,332.0,100.0,-174.0,-835.0,-138.0,2
617,-35.0,-218.0,-57.0,-44.0,316.0,39.0,-160.0,-843.0,-146.0,2
618,-31.0,-223.0,-53.0,-31.0,282.0,2.0,-146.0,-851.0,-141.0,2
619,-30.0,-224.0,-55.0,-24.0,267.0,-27.0,-141.0,-858.0,-141.0,2
620,-28.0,-222.0,-52.0,-13.0,257.0,-59.0,-137.0,-861.0,-133.0,2
621,-21.0,-226.0,-49.0,2.0,247.0,-80.0,-123.0,-864.0,-128.0,2
622,-22.0,-229.0,-47.0,19.0,229.0,-73.0,-123.0,-893.0,-124.0,2
623,-28.0,-228.0,-44.0,29.0,248.0,-108.0,-132.0,-885.0,-112.0,2
624,-27.0,-229.0,-44.0,48.0,252.0,-149.0,-129.0,-884.0,-87.0,2
625,-25.0,-229.0,-39.0,71.0,242.0,-172.0,-126.0,-892.0,-82.0,2
626,-23.0,-232.0,-40.0,94.0,237.0,-192.0,-123.0,-885.0,-69.0,2
627,-24.0,-230.0,-36.0,120.0,240.0,-210.0,-125.0,-889.0,-64.0,2
628,-24.0,-229.0,-34.0,144.0,242.0,-229.0,-121.0,-884.0,-56.0,2
629,-19.0,-229.0,-36.0,171.0,242.0,-238.0,-108.0,-889.0,-65.0,2
630,-18.0,-230.0,-36.0,187.0,245.0,-245.0,-101.0,-897.0,-81.0,2
631,-15.0,-234.0,-46.0,189.0,253.0,-256.0,-92.0,-895.0,-86.0,2
632,-12.0,-231.0,-47.0,180.0,258.0,-266.0,-79.0,-894.0,-97.0,2
633,-12.0,-236.0,-45.0,167.0,265.0,-270.0,-79.0,-903.0,-106.0,2
634,-8.0,-234.0,-50.0,151.0,268.0,-263.0,-60.0,-913.0,-112.0,2
635,2.0,-239.0,-49.0,123.0,272.0,-258.0,-24.0,-924.0,-128.0,2
636,12.0,-218.0,-40.0,85.0,278.0,-256.0,-16.0,-909.0,-133.0,2
637,4.0,-246.0,-62.0,64.0,266.0,-210.0,-3.0,-957.0,-133.0,2
638,-3.0,-243.0,-58.0,39.0,300.0,-239.0,-39.0,-948.0,-144.0,2
639,1.0,-248.0,-53.0,-2.0,319.0,-245.0,-22.0,-972.0,-126.0,2
640,3.0,-256.0,-52.0,-22.0,316.0,-242.0,-13.0,-990.0,-128.0,2
641,6.0,-258.0,-51.0,-34.0,310.0,-241.0,-11.0,-1010.0,-126.0,2
642,4.0,-260.0,-50.0,-39.0,306.0,-240.0,-15.0,-1014.0,-116.0,2
643,1.0,-261.0,-44.0,-40.0,301.0,-241.0,-21.0,-1023.0,-105.0,2
644,-4.0,-263.0,-44.0,-33.0,296.0,-237.0,-37.0,-1025.0,-100.0,2
645,-8.0,-265.0,-46.0,-27.0,287.0,-229.0,-53.0,-1037.0,-100.0,2
646,-9.0,-265.0,-49.0,-26.0,276.0,-217.0,-68.0,-1033.0,-97.0,2
647,-12.0,-267.0,-45.0,-21.0,269.0,-209.0,-80.0,-1045.0,-99.0,2
648,-16.0,-271.0,-47.0,-20.0,266.0,-193.0,-99.0,-1057.0,-101.0,2
649,-23.0,-271.0,-44.0,-19.0,266.0,-176.0,-123.0,-1066.0,-103.0,2
650,-27.0,-280.0,-45.0,-14.0,266.0,-156.0,-133.0,-1073.0,-100.0,2
651,-29.0,-281.0,-50.0,-5.0,264.0,-137.0,-144.0,-1087.0,-110.0,2
652,-32.0,-281.0,-44.0,5.0,267.0,-114.0,-159.0,-1097.0,-108.0,2
653,-32.0,-288.0,-49.0,13.0,272.0,-95.0,-165.0,-1102.0,-108.0,2
654,-34.0,-287.0,-44.0,26.0,283.0,-72.0,-168.0,-1106.0,-101.0,2
655,-30.0,-278.0,-43.0,39.0,295.0,-51.0,-65.0,-1069.0,-86.0,2
656,-34.0,-294.0,-40.0,61.0,278.0,47.0,-152.0,-1129.0,-93.0,2
657,-40.0,-288.0,-32.0,63.0,340.0,36.0,-187.0,-1124.0,-60.0,2
658,-38.0,-293.0,-34.0,69.0,377.0,8.0,-180.0,-1128.0,-43.0,2
659,-29.0,-292.0,-27.0,80.0,377.0,11.0,-158.0,-1134.0,-37.0,2
660,-23.0,-288.0,-20.0,85.0,390.0,21.0,-128.0,-1113.0,-15.0,2
661,-9.0,-285.0,-19.0,92.0,402.0,35.0,-56.0,-1091.0,21.0,2
662,-11.0,-287.0,-19.0,105.0,414.0,83.0,-92.0,-1110.0,21.0,2
663,-15.0,-286.0,-17.0,113.0,458.0,61.0,-100.0,-1115.0,8.0,2
664,-12.0,-283.0,-23.0,107.0,472.0,63.0,-80.0,-1092.0,-24.0,2
665,-9.0,-283.0,-33.0,100.0,468.0,75.0,-55.0,-1099.0,-56.0,2
666,-6.0,-276.0,-35.0,84.0,479.0,84.0,-42.0,-1078.0,-67.0,2
667,-6.0,-280.0,-43.0,80.0,492.0,86.0,-39.0,-1085.0,-77.0,2
668,2.0,-280.0,-44.0,83.0,499.0,96.0,-31.0,-1084.0,-104.0,2
669,-1.0,-285.0,-48.0,83.0,497.0,120.0,-37.0,-1101.0,-119.0,2
670,-10.0,-289.0,-52.0,79.0,510.0,119.0,-66.0,-1122.0,-137.0,2
671,-12.0,-291.0,-56.0,72.0,517.0,109.0,-82.0,-1126.0,-147.0,2
672,-13.0,-293.0,-63.0,70.0,507.0,112.0,-94.0,-1141.0,-171.0,2
673,-15.0,-300.0,-70.0,74.0,489.0,112.0,-106.0,-1153.0,-203.0,2
674,-24.0,-299.0,-79.0,78.0,471.0,115.0,-121.0,-1154.0,-246.0,2
675,-22.0,-301.0,-99.0,80.0,456.0,121.0,-128.0,-1160.0,-304.0,2
676,-34.0,-300.0,-116.0,75.0,442.0,138.0,-145.0,-1172.0,-369.0,2
677,-42.0,-308.0,-129.0,60.0,434.0,162.0,-178.0,-1187.0,-441.0,2
678,-54.0,-309.0,-135.0,34.0,419.0,200.0,-252.0,-1206.0,-503.0,2
679,-74.0,-313.0,-146.0,2.0,380.0,249.0,-310.0,-1216.0,-530.0,2
680,-86.0,-316.0,-159.0,-25.0,303.0,332.0,-357.0,-1231.0,-567.0,2
681,-89.0,-316.0,-163.0,-50.0,222.0,416.0,-379.0,-1234.0,-583.0,2
682,-83.0,-315.0,-164.0,-67.0,134.0,505.0,-349.0,-1222.0,-590.0,2
683,-59.0,-309.0,-161.0,-105.0,48.0,571.0,-269.0,-1198.0,-569.0,2
684,-42.0,-291.0,-144.0,-168.0,-20.0,604.0,-206.0,-1153.0,-532.0,2
685,-28.0,-284.0,-146.0,-232.0,-50.0,603.0,-156.0,-1105.0,-502.0,2
686,-19.0,-264.0,-140.0,-269.0,-43.0,594.0,-110.0,-1049.0,-496.0,2
687,-4.0,-255.0,-135.0,-274.0,-6.0,573.0,-58.0,-985.0,-478.0,2
688,13.0,-244.0,-132.0,-244.0,39.0,540.0,-3.0,-933.0,-455.0,2
689,26.0,-233.0,-123.0,-189.0,93.0,500.0,54.0,-901.0,-430.0,2
690,40.0,-224.0,-113.0,-114.0,137.0,447.0,118.0,-863.0,-377.0,2
691,51.0,-212.0,-105.0,-3.0,162.0,398.0,168.0,-811.0,-329.0,2
692,66.0,-212.0,-101.0,101.0,162.0,358.0,223.0,-822.0,-336.0,2
693,75.0,-215.0,-108.0,176.0,164.0,306.0,269.0,-837.0,-357.0,2
694,90.0,-215.0,-100.0,213.0,168.0,247.0,313.0,-838.0,-329.0,2
695,97.0,-223.0,-102.0,234.0,184.0,176.0,331.0,-872.0,-322.0,2
696,91.0,-241.0,-104.0,238.0,215.0,93.0,304.0,-945.0,-345.0,2
697,74.0,-252.0,-102.0,204.0,263.0,10.0,257.0,-987.0,-349.0,2
698,66.0,-255.0,-93.0,149.0,294.0,-54.0,228.0,-1003.0,-312.0,2
699,56.0,-257.0,-70.0,112.0,293.0,-102.0,197.0,-1001.0,-231.0,2
700,52.0,-261.0,-42.0,127.0,285.0,-158.0,177.0,-995.0,-95.0,2
701,45.0,-260.0,-51.0,261.0,265.0,-203.0,146.0,-1004.0,-123.0,2
702,36.0,-256.0,-61.0,354.0,252.0,-238.0,114.0,-999.0,-154.0,2
703,25.0,-253.0,-58.0,404.0,231.0,-272.0,94.0,-971.0,-168.0,2
704,20.0,-249.0,-65.0,436.0,197.0,-301.0,46.0,-951.0,-188.0,2
705,7.0,-247.0,-76.0,450.0,155.0,-326.0,9.0,-951.0,-223.0,2
706,-1.0,-253.0,-87.0,426.0,109.0,-357.0,-32.0,-993.0,-282.0,2
707,-7.0,-251.0,-94.0,353.0,71.0,-391.0,-45.0,-978.0,-305.0,2
708,-9.0,-250.0,-93.0,272.0,20.0,-435.0,-49.0,-970.0,-296.0,2
709,-9.0,-249.0,-99.0,209.0,-46.0,-469.0,-64.0,-975.0,-322.0,2
710,-12.0,-248.0,-100.0,144.0,-106.0,-493.0,-77.0,-967.0,-335.0,2
711,-22.0,-244.0,-99.0,77.0,-144.0,-541.0,-118.0,-949.0,-327.0,2
712,-17.0,-240.0,-95.0,-2.0,-183.0,-579.0,-92.0,-927.0,-316.0,2
713,-20.0,-236.0,-87.0,-47.0,-249.0,-587.0,-97.0,-911.0,-281.0,2
714,-27.0,-237.0,-89.0,-75.0,-285.0,-592.0,-128.0,-918.0,-285.0,2
715,-27.0,-230.0,-89.0,-108.0,-299.0,-599.0,-133.0,-899.0,-276.0,2
716,-20.0,-231.0,-81.0,-128.0,-325.0,-578.0,-114.0,-899.0,-257.0,2
717,-13.0,-227.0,-81.0,-132.0,-340.0,-546.0,-94.0,-880.0,-251.0,2
718,-12.0,-224.0,-77.0,-123.0,-322.0,-537.0,-83.0,-875.0,-234.0,2
719,-9.0,-220.0,-72.0,-106.0,-297.0,-554.0,-54.0,-845.0,-197.0,2
720,-1.0,-216.0,-62.0,-68.0,-302.0,-559.0,-34.0,-833.0,-169.0,2
721,-1.0,-210.0,-60.0,-15.0,-316.0,-543.0,-34.0,-821.0,-159.0,2
722,3.0,-205.0,-59.0,48.0,-333.0,-535.0,-12.0,-811.0,-167.0,2
723,10.0,-200.0,-58.0,92.0,-355.0,-521.0,10.0,-788.0,-164.0,2
724,14.0,-194.0,-58.0,137.0,-369.0,-501.0,42.0,-775.0,-168.0,2
725,21.0,-190.0,-61.0,179.0,-376.0,-474.0,55.0,-725.0,-167.0,2
726,26.0,-188.0,-59.0,214.0,-377.0,-455.0,67.0,-729.0,-187.0,2
727,30.0,-184.0,-77.0,217.0,-381.0,-437.0,89.0,-721.0,-209.0,2
728,29.0,-185.0,-77.0,184.0,-397.0,-420.0,89.0,-727.0,-226.0,2
729,35.0,-185.0,-78.0,120.0,-412.0,-397.0,109.0,-735.0,-221.0,2
730,44.0,-191.0,-68.0,54.0,-425.0,-382.0,134.0,-743.0,-207.0,2
731,48.0,-193.0,-69.0,4.0,-435.0,-366.0,155.0,-753.0,-205.0,2
732,52.0,-194.0,-68.0,-34.0,-433.0,-360.0,172.0,-760.0,-204.0,2
733,54.0,-197.0,-67.0,-76.0,-427.0,-351.0,193.0,-777.0,-189.0,2
734,58.0,-196.0,-68.0,-115.0,-420.0,-353.0,198.0,-781.0,-201.0,2
735,58.0,-202.0,-72.0,-156.0,-415.0,-351.0,203.0,-791.0,-210.0,2
736,59.0,-200.0,-70.0,-206.0,-406.0,-352.0,210.0,-807.0,-213.0,2
737,58.0,-205.0,-66.0,-253.0,-397.0,-346.0,199.0,-812.0,-205.0,2
738,60.0,-209.0,-67.0,-291.0,-383.0,-341.0,198.0,-819.0,-201.0,2
739,55.0,-217.0,-66.0,-317.0,-367.0,-323.0,168.0,-862.0,-205.0,2
740,56.0,-207.0,-67.0,-334.0,-337.0,-346.0,190.0,-823.0,-187.0,2
741,71.0,-216.0,-65.0,-327.0,-341.0,-286.0,229.0,-852.0,-179.0,2
742,68.0,-217.0,-59.0,-309.0,-288.0,-245.0,225.0,-853.0,-162.0,2
743,66.0,-222.0,-54.0,-276.0,-238.0,-210.0,222.0,-866.0,-146.0,2
744,64.0,-224.0,-54.0,-238.0,-200.0,-179.0,211.0,-867.0,-136.0,2
745,60.0,-224.0,-52.0,-197.0,-163.0,-141.0,215.0,-885.0,-137.0,2
746,65.0,-230.0,-55.0,-160.0,-136.0,-105.0,218.0,-892.0,-136.0,2
747,60.0,-222.0,-51.0,-129.0,-112.0,-64.0,221.0,-894.0,-130.0,2
748,65.0,-232.0,-50.0,-98.0,-90.0,-25.0,224.0,-894.0,-133.0,2
749,63.0,-228.0,-53.0,-70.0,-70.0,10.0,220.0,-894.0,-129.0,2
750,64.0,-231.0,-57.0,-43.0,-54.0,45.0,226.0,-902.0,-145.0,2
751,70.0,-232.0,-51.0,-30.0,-38.0,77.0,232.0,-905.0,-143.0,2
752,67.0,-233.0,-57.0,-20.0,-23.0,98.0,236.0,-915.0,-145.0,2
753,66.0,-236.0,-54.0,-11.0,-4.0,114.0,234.0,-915.0,-145.0,2
754,64.0,-234.0,-52.0,-8.0,10.0,126.0,227.0,-926.0,-145.0,2
755,65.0,-238.0,-55.0,-3.0,22.0,137.0,223.0,-931.0,-135.0,2
756,58.0,-239.0,-50.0,0.0,28.0,146.0,212.0,-935.0,-133.0,2
757,58.0,-240.0,-50.0,7.0,27.0,157.0,198.0,-934.0,-120.0,2
758,55.0,-242.0,-48.0,13.0,27.0,164.0,192.0,-938.0,-132.0,2
759,53.0,-244.0,-48.0,9.0,30.0,170.0,176.0,-947.0,-130.0,2
760,48.0,-244.0,-54.0,5.0,33.0,177.0,162.0,-954.0,-134.0,2
761,41.0,-243.0,-41.0,-5.0,40.0,175.0,132.0,-947.0,-109.0,2
762,36.0,-240.0,-52.0,-26.0,62.0,108.0,132.0,-935.0,-131.0,2
763,41.0,-247.0,-57.0,-34.0,10.0,172.0,135.0,-951.0,-144.0,2
764,38.0,-245.0,-56.0,-54.0,22.0,209.0,118.0,-951.0,-141.0,2
765,36.0,-250.0,-57.0,-78.0,57.0,224.0,98.0,-968.0,-148.0,2
766,24.0,-246.0,-54.0,-110.0,81.0,226.0,71.0,-958.0,-143.0,2
767,16.0,-249.0,-52.0,-134.0,87.0,228.0,37.0,-963.0,-122.0,2
768,12.0,-251.0,-45.0,-143.0,84.0,233.0,15.0,-961.0,-99.0,2
769,11.0,-254.0,-43.0,-143.0,74.0,235.0,23.0,-977.0,-98.0,2
770,11.0,-258.0,-41.0,-134.0,61.0,235.0,12.0,-983.0,-78.0,2
771,9.0,-257.0,-35.0,-110.0,47.0,230.0,11.0,-978.0,-65.0,2
772,9.0,-255.0,-35.0,-72.0,30.0,230.0,7.0,-994.0,-57.0,2
773,13.0,-261.0,-40.0,-32.0,12.0,229.0,18.0,-1013.0,-75.0,2
774,7.0,-257.0,-36.0,-1.0,16.0,181.0,15.0,-1014.0,-82.0,2
775,21.0,-262.0,-42.0,21.0,-19.0,184.0,44.0,-1021.0,-79.0,2
776,31.0,-264.0,-44.0,40.0,-37.0,207.0,72.0,-1032.0,-96.0,2
777,29.0,-264.0,-40.0,51.0,-24.0,192.0,88.0,-1027.0,-88.0,2
778,21.0,-265.0,-44.0,61.0,-10.0,176.0,57.0,-1036.0,-87.0,2
779,16.0,-265.0,-38.0,65.0,-5.0,157.0,23.0,-1030.0,-73.0,2
780,14.0,-269.0,-36.0,74.0,-10.0,143.0,21.0,-1039.0,-64.0,2
781,15.0,-268.0,-40.0,89.0,-29.0,123.0,17.0,-1041.0,-72.0,2
782,14.0,-266.0,-36.0,98.0,-55.0,108.0,23.0,-1039.0,-68.0,2
783,11.0,-264.0,-38.0,97.0,-86.0,85.0,22.0,-1035.0,-62.0,2
784,19.0,-266.0,-37.0,89.0,-126.0,67.0,45.0,-1043.0,-62.0,2
785,26.0,-267.0,-30.0,82.0,-154.0,47.0,78.0,-1046.0,-48.0,2
786,32.0,-270.0,-30.0,77.0,-172.0,34.0,98.0,-1054.0,-38.0,2
787,38.0,-273.0,-27.0,79.0,-174.0,17.0,110.0,-1064.0,-23.0,2
788,37.0,-274.0,-22.0,84.0,-168.0,8.0,109.0,-1065.0,-6.0,2
789,40.0,-274.0,-17.0,94.0,-166.0,7.0,121.0,-1069.0,4.0,2
790,46.0,-276.0,-19.0,107.0,-171.0,12.0,140.0,-1058.0,13.0,2
791,52.0,-271.0,-23.0,115.0,-176.0,7.0,168.0,-1069.0,-12.0,2
792,51.0,-273.0,-28.0,114.0,-175.0,3.0,171.0,-1067.0,-33.0,2
793,49.0,-275.0,-23.0,103.0,-166.0,-7.0,167.0,-1071.0,-34.0,2
794,39.0,-285.0,-39.0,87.0,-148.0,-46.0,123.0,-1084.0,-27.0,2
795,43.0,-279.0,-23.0,80.0,-166.0,-90.0,150.0,-1092.0,-23.0,2
796,48.0,-285.0,-25.0,105.0,-214.0,-58.0,150.0,-1111.0,-24.0,2
797,51.0,-294.0,-32.0,142.0,-220.0,-49.0,162.0,-1143.0,-62.0,2
798,48.0,-296.0,-41.0,167.0,-211.0,-52.0,145.0,-1151.0,-83.0,2
799,41.0,-300.0,-46.0,184.0,-209.0,-58.0,129.0,-1163.0,-92.0,2
800,42.0,-303.0,-47.0,188.0,-216.0,-59.0,126.0,-1180.0,-105.0,2
801,39.0,-302.0,-54.0,180.0,-229.0,-75.0,104.0,-1185.0,-127.0,2
802,37.0,-307.0,-53.0,174.0,-240.0,-75.0,88.0,-1174.0,-134.0,2
803,33.0,-304.0,-64.0,179.0,-248.0,-72.0,98.0,-1176.0,-171.0,2
804,42.0,-307.0,-88.0,187.0,-250.0,-71.0,116.0,-1184.0,-261.0,2
805,47.0,-304.0,-113.0,179.0,-238.0,-86.0,138.0,-1190.0,-359.0,2
806,50.0,-313.0,-136.0,146.0,-213.0,-112.0,161.0,-1216.0,-452.0,2
807,53.0,-326.0,-160.0,73.0,-189.0,-155.0,169.0,-1268.0,-551.0,2
808,48.0,-333.0,-127.0,-39.0,-163.0,-207.0,106.0,-1375.0,-580.0,2
809,43.0,-353.0,-145.0,-174.0,-130.0,-316.0,139.0,-1405.0,-525.0,2
810,40.0,-372.0,-136.0,-277.0,-122.0,-340.0,98.0,-1446.0,-455.0,2
811,17.0,-372.0,-115.0,-332.0,-76.0,-375.0,19.0,-1435.0,-376.0,2
812,2.0,-367.0,-95.0,-328.0,-48.0,-387.0,-29.0,-1401.0,-320.0,2
813,-4.0,-346.0,-92.0,-281.0,-56.0,-374.0,-42.0,-1343.0,-292.0,2
814,-3.0,-321.0,-88.0,-208.0,-86.0,-334.0,-46.0,-1243.0,-287.0,2
815,-2.0,-281.0,-110.0,-113.0,-123.0,-293.0,-21.0,-1138.0,-311.0,2
816,2.0,-262.0,-113.0,-51.0,-150.0,-250.0,1.0,-1029.0,-340.0,2
817,-5.0,-236.0,-95.0,-17.0,-172.0,-220.0,-13.0,-916.0,-372.0,2
818,-6.0,-209.0,-112.0,-12.0,-196.0,-192.0,-27.0,-840.0,-394.0,2
819,-9.0,-199.0,-111.0,-25.0,-235.0,-168.0,-28.0,-784.0,-389.0,2
820,-10.0,-179.0,-121.0,-51.0,-287.0,-146.0,-38.0,-726.0,-392.0,2
821,-9.0,-169.0,-112.0,-87.0,-343.0,-131.0,-47.0,-676.0,-395.0,2
822,-9.0,-165.0,-190.0,-129.0,-395.0,-125.0,-82.0,-601.0,-456.0,2
823,-12.0,-150.0,-126.0,-189.0,-445.0,-124.0,-70.0,-634.0,-459.0,2
824,-16.0,-150.0,-135.0,-289.0,-480.0,-128.0,-94.0,-621.0,-456.0,2
825,-17.0,-150.0,-132.0,-437.0,-509.0,-134.0,-99.0,-618.0,-447.0,2
826,-16.0,-159.0,-112.0,-555.0,-524.0,-138.0,-94.0,-630.0,-378.0,2
827,-20.0,-168.0,-93.0,-608.0,-529.0,-137.0,-104.0,-644.0,-299.0,2
828,-21.0,-177.0,-91.0,-593.0,-524.0,-120.0,-113.0,-679.0,-284.0,2
829,-19.0,-190.0,-82.0,-536.0,-508.0,-95.0,-105.0,-708.0,-242.0,2
830,-16.0,-199.0,-70.0,-426.0,-483.0,-50.0,-105.0,-754.0,-229.0,2
831,-18.0,-216.0,-70.0,-306.0,-446.0,-10.0,-110.0,-819.0,-206.0,2
832,-14.0,-231.0,-76.0,-180.0,-408.0,17.0,-93.0,-880.0,-237.0,2
833,-18.0,-241.0,-83.0,-74.0,-385.0,58.0,-99.0,-937.0,-268.0,2
834,-25.0,-253.0,-85.0,6.0,-354.0,92.0,-129.0,-964.0,-273.0,2
835,-22.0,-257.0,-87.0,66.0,-308.0,124.0,-125.0,-975.0,-274.0,2
836,-15.0,-256.0,-85.0,134.0,-284.0,153.0,-98.0,-1003.0,-279.0,2
837,-10.0,-256.0,-94.0,170.0,-262.0,185.0,-67.0,-1000.0,-300.0,2
838,1.0,-253.0,-99.0,180.0,-229.0,215.0,-27.0,-993.0,-324.0,2
839,9.0,-251.0,-105.0,164.0,-190.0,245.0,-7.0,-975.0,-341.0,2
840,16.0,-245.0,-107.0,128.0,-142.0,272.0,21.0,-963.0,-331.0,2
841,16.0,-244.0,-94.0,83.0,-96.0,304.0,22.0,-954.0,-322.0,2
842,18.0,-242.0,-93.0,38.0,-48.0,320.0,34.0,-937.0,-308.0,2
843,19.0,-235.0,-82.0,5.0,-20.0,344.0,48.0,-919.0,-261.0,2
844,25.0,-238.0,-79.0,-4.0,-8.0,363.0,63.0,-923.0,-241.0,2
845,27.0,-239.0,-74.0,-1.0,-5.0,378.0,71.0,-926.0,-226.0,2
846,31.0,-240.0,-73.0,8.0,-1.0,387.0,81.0,-931.0,-215.0,2
847,29.0,-244.0,-66.0,20.0,6.0,399.0,94.0,-942.0,-201.0,2
848,32.0,-245.0,-64.0,36.0,12.0,408.0,85.0,-939.0,-185.0,2
849,32.0,-245.0,-65.0,62.0,15.0,411.0,88.0,-944.0,-187.0,2
850,30.0,-245.0,-71.0,83.0,11.0,409.0,82.0,-942.0,-212.0,2
851,28.0,-239.0,-70.0,83.0,6.0,417.0,73.0,-921.0,-213.0,2
852,24.0,-240.0,-75.0,71.0,-3.0,427.0,54.0,-923.0,-226.0,2
853,17.0,-237.0,-75.0,42.0,0.0,418.0,41.0,-916.0,-226.0,2
854,14.0,-236.0,-68.0,11.0,-7.0,401.0,32.0,-912.0,-207.0,2
855,16.0,-237.0,-72.0,-8.0,-17.0,391.0,25.0,-910.0,-201.0,2
856,14.0,-235.0,-73.0,-17.0,-8.0,380.0,19.0,-906.0,-210.0,2
857,9.0,-235.0,-77.0,-33.0,11.0,373.0,2.0,-910.0,-226.0,2
858,2.0,-233.0,-74.0,-51.0,47.0,344.0,-14.0,-903.0,-218.0,2
859,-3.0,-227.0,-70.0,-62.0,74.0,329.0,-34.0,-891.0,-205.0,2
860,-6.0,-229.0,-71.0,-63.0,93.0,317.0,-56.0,-880.0,-203.0,2
861,-10.0,-219.0,-66.0,-63.0,118.0,314.0,-67.0,-869.0,-193.0,2
862,-14.0,-218.0,-65.0,-64.0,143.0,313.0,-100.0,-849.0,-202.0,2
863,-17.0,-217.0,-68.0,-73.0,173.0,322.0,-115.0,-835.0,-199.0,2
864,-9.0,-216.0,-64.0,-82.0,217.0,328.0,-73.0,-846.0,-181.0,2
865,-12.0,-216.0,-67.0,-95.0,264.0,322.0,-90.0,-846.0,-196.0,2
866,-21.0,-218.0,-70.0,-118.0,301.0,315.0,-118.0,-849.0,-200.0,2
867,-23.0,-217.0,-58.0,-149.0,326.0,321.0,-116.0,-852.0,-176.0,2
868,-20.0,-222.0,-57.0,-162.0,338.0,331.0,-100.0,-853.0,-163.0,2
869,-20.0,-219.0,-46.0,-162.0,359.0,334.0,-116.0,-846.0,-122.0,2
870,-28.0,-216.0,-43.0,-140.0,364.0,311.0,-118.0,-847.0,-99.0,2
871,-19.0,-217.0,-42.0,-108.0,343.0,295.0,-108.0,-834.0,-91.0,2
872,-20.0,-215.0,-48.0,-81.0,322.0,274.0,-106.0,-830.0,-99.0,2
873,-17.0,-212.0,-43.0,-63.0,299.0,258.0,-76.0,-801.0,-86.0,2
874,-17.0,-215.0,-46.0,-43.0,269.0,264.0,-93.0,-844.0,-104.0,2
875,-23.0,-218.0,-51.0,-34.0,275.0,230.0,-118.0,-836.0,-117.0,2
876,-22.0,-219.0,-44.0,-35.0,269.0,176.0,-111.0,-849.0,-118.0,2
877,-22.0,-223.0,-49.0,-36.0,245.0,138.0,-109.0,-853.0,-118.0,2
878,-24.0,-223.0,-47.0,-29.0,233.0,100.0,-120.0,-865.0,-118.0,2
879,-14.0,-224.0,-51.0,-19.0,221.0,72.0,-93.0,-868.0,-115.0,2
880,-25.0,-229.0,-47.0,-6.0,214.0,53.0,-126.0,-880.0,-124.0,2
881,-30.0,-226.0,-49.0,0.0,226.0,9.0,-147.0,-879.0,-116.0,2
882,-30.0,-229.0,-49.0,7.0,221.0,-23.0,-148.0,-880.0,-113.0,2
883,-30.0,-229.0,-43.0,10.0,218.0,-42.0,-156.0,-881.0,-114.0,2
884,-29.0,-224.0,-43.0,11.0,223.0,-57.0,-152.0,-879.0,-98.0,2
885,-24.0,-226.0,-40.0,17.0,231.0,-71.0,-152.0,-874.0,-80.0,2
886,-29.0,-227.0,-37.0,32.0,236.0,-61.0,-140.0,-881.0,-50.0,2
887,-32.0,-227.0,-31.0,62.0,270.0,-79.0,-158.0,-879.0,-39.0,2
888,-30.0,-227.0,-28.0,96.0,291.0,-99.0,-154.0,-875.0,-50.0,2
889,-27.0,-230.0,-31.0,131.0,306.0,-117.0,-141.0,-877.0,-50.0,2
890,-24.0,-228.0,-37.0,161.0,319.0,-131.0,-127.0,-877.0,-64.0,2
891,-22.0,-228.0,-36.0,184.0,333.0,-142.0,-117.0,-883.0,-66.0,2
892,-20.0,-228.0,-44.0,200.0,347.0,-153.0,-106.0,-881.0,-82.0,2
893,-15.0,-235.0,-41.0,210.0,350.0,-149.0,-92.0,-894.0,-87.0,2
894,-18.0,-234.0,-47.0,211.0,362.0,-154.0,-106.0,-896.0,-93.0,2
895,-18.0,-232.0,-46.0,199.0,374.0,-174.0,-107.0,-914.0,-98.0,2
896,-12.0,-236.0,-52.0,175.0,370.0,-184.0,-86.0,-907.0,-121.0,2
897,-10.0,-237.0,-51.0,143.0,362.0,-186.0,-65.0,-922.0,-123.0,2
898,-7.0,-238.0,-54.0,102.0,364.0,-187.0,-50.0,-930.0,-130.0,2
899,-3.0,-243.0,-53.0,65.0,371.0,-188.0,-40.0,-944.0,-127.0,2
900,-3.0,-244.0,-53.0,29.0,380.0,-189.0,-39.0,-952.0,-131.0,2
901,-7.0,-250.0,-52.0,-2.0,388.0,-195.0,-44.0,-963.0,-129.0,2
902,-6.0,-251.0,-52.0,-25.0,393.0,-195.0,-45.0,-977.0,-129.0,2
903,-6.0,-255.0,-49.0,-41.0,395.0,-199.0,-55.0,-978.0,-123.0,2
904,-5.0,-257.0,-51.0,-49.0,394.0,-199.0,-48.0,-992.0,-133.0,2
905,-9.0,-258.0,-55.0,-51.0,390.0,-202.0,-59.0,-1005.0,-138.0,2
906,-12.0,-257.0,-54.0,-58.0,384.0,-200.0,-79.0,-1004.0,-136.0,2
907,-14.0,-260.0,-54.0,-64.0,379.0,-190.0,-94.0,-1013.0,-140.0,2
908,-18.0,-260.0,-49.0,-66.0,375.0,-175.0,-105.0,-1022.0,-135.0,2
909,-19.0,-263.0,-51.0,-65.0,372.0,-159.0,-108.0,-1027.0,-133.0,2
910,-25.0,-262.0,-50.0,-60.0,367.0,-141.0,-115.0,-1030.0,-128.0,2
911,-21.0,-271.0,-52.0,-55.0,363.0,-121.0,-115.0,-1041.0,-134.0,2
912,-22.0,-273.0,-54.0,-48.0,359.0,-98.0,-126.0,-1065.0,-137.0,2
913,-24.0,-277.0,-52.0,-48.0,361.0,-79.0,-123.0,-1083.0,-131.0,2
914,-20.0,-283.0,-52.0,-45.0,368.0,-57.0,-113.0,-1103.0,-129.0,2
915,-24.0,-289.0,-45.0,-37.0,374.0,-39.0,-114.0,-1127.0,-105.0,2
916,-26.0,-297.0,-35.0,-24.0,393.0,-23.0,-133.0,-1135.0,-78.0,2
917,-28.0,-299.0,-35.0,-5.0,411.0,-5.0,-138.0,-1152.0,-47.0,2
918,-31.0,-302.0,-25.0,29.0,431.0,12.0,-157.0,-1165.0,-22.0,2
919,-30.0,-306.0,-17.0,62.0,444.0,27.0,-151.0,-1173.0,3.0,2
920,-14.0,-312.0,-17.0,109.0,420.0,113.0,-120.0,-1194.0,31.0,2
921,-31.0,-310.0,-20.0,156.0,458.0,119.0,-147.0,-1189.0,17.0,2
922,-30.0,-307.0,-20.0,183.0,492.0,100.0,-145.0,-1175.0,-3.0,2
923,-24.0,-305.0,-25.0,199.0,492.0,102.0,-131.0,-1170.0,-21.0,2
924,-21.0,-304.0,-32.0,210.0,482.0,130.0,-112.0,-1166.0,-47.0,2
925,-12.0,-305.0,-37.0,210.0,485.0,163.0,-97.0,-1177.0,-70.0,2
926,-12.0,-301.0,-38.0,194.0,502.0,186.0,-89.0,-1174.0,-73.0,2
927,-12.0,-306.0,-51.0,178.0,516.0,203.0,-90.0,-1183.0,-110.0,2
928,-13.0,-302.0,-50.0,150.0,521.0,234.0,-90.0,-1188.0,-123.0,2
929,-13.0,-304.0,-54.0,113.0,515.0,258.0,-89.0,-1179.0,-135.0,2
930,-15.0,-306.0,-50.0,85.0,503.0,285.0,-100.0,-1191.0,-135.0,2
931,-19.0,-309.0,-55.0,56.0,493.0,297.0,-106.0,-1190.0,-138.0,2
932,-14.0,-311.0,-53.0,36.0,482.0,301.0,-103.0,-1205.0,-140.0,2
933,-19.0,-311.0,-56.0,21.0,462.0,300.0,-102.0,-1213.0,-149.0,2
934,-28.0,-314.0,-56.0,17.0,444.0,298.0,-140.0,-1207.0,-151.0,2
935,-38.0,-312.0,-68.0,28.0,428.0,296.0,-178.0,-1193.0,-185.0,2
936,-45.0,-306.0,-77.0,47.0,412.0,310.0,-201.0,-1186.0,-222.0,2
937,-43.0,-307.0,-89.0,61.0,385.0,325.0,-205.0,-1203.0,-278.0,2
938,-50.0,-315.0,-92.0,62.0,350.0,344.0,-225.0,-1207.0,-293.0,2
939,-54.0,-313.0,-97.0,72.0,301.0,351.0,-228.0,-1211.0,-320.0,2
940,-57.0,-315.0,-107.0,76.0,252.0,353.0,-262.0,-1204.0,-346.0,2
941,-67.0,-305.0,-110.0,81.0,201.0,352.0,-278.0,-1193.0,-376.0,2
942,-63.0,-300.0,-117.0,84.0,151.0,360.0,-277.0,-1160.0,-397.0,2
943,-55.0,-291.0,-125.0,77.0,109.0,362.0,-243.0,-1144.0,-429.0,2
944,-44.0,-287.0,-127.0,59.0,95.0,353.0,-202.0,-1123.0,-447.0,2
945,-30.0,-278.0,-129.0,42.0,103.0,333.0,-165.0,-1089.0,-441.0,2
946,-20.0,-267.0,-126.0,28.0,129.0,304.0,-126.0,-1052.0,-442.0,2
947,-12.0,-259.0,-129.0,24.0,165.0,271.0,-87.0,-1015.0,-444.0,2
948,-3.0,-249.0,-136.0,31.0,216.0,228.0,-49.0,-964.0,-459.0,2
949,7.0,-238.0,-138.0,54.0,294.0,194.0,-2.0,-918.0,-455.0,2
950,22.0,-224.0,-129.0,91.0,361.0,165.0,41.0,-864.0,-447.0,2
951,37.0,-217.0,-130.0,136.0,421.0,140.0,112.0,-833.0,-446.0,2
952,51.0,-211.0,-128.0,168.0,468.0,110.0,166.0,-830.0,-450.0,2
953,63.0,-209.0,-130.0,175.0,500.0,74.0,218.0,-832.0,-445.0,2
954,73.0,-212.0,-126.0,155.0,517.0,40.0,258.0,-841.0,-444.0,2
955,85.0,-210.0,-118.0,113.0,527.0,11.0,298.0,-831.0,-396.0,2
956,86.0,-207.0,-101.0,86.0,519.0,-3.0,313.0,-816.0,-326.0,2
957,98.0,-213.0,-96.0,89.0,498.0,-7.0,337.0,-843.0,-313.0,2
958,91.0,-224.0,-98.0,83.0,492.0,-24.0,327.0,-883.0,-311.0,2
959,81.0,-229.0,-87.0,64.0,480.0,-51.0,292.0,-898.0,-287.0,2
960,75.0,-240.0,-87.0,39.0,447.0,-67.0,268.0,-922.0,-269.0,2
961,66.0,-257.0,-86.0,15.0,421.0,-97.0,238.0,-1000.0,-272.0,2
962,50.0,-263.0,-78.0,-17.0,404.0,-143.0,179.0,-1030.0,-255.0,2
963,38.0,-263.0,-68.0,-27.0,365.0,-177.0,125.0,-1026.0,-182.0,2
964,26.0,-263.0,-61.0,18.0,304.0,-191.0,75.0,-1017.0,-166.0,2
965,18.0,-260.0,-63.0,95.0,255.0,-205.0,49.0,-1000.0,-168.0,2
966,13.0,-256.0,-68.0,163.0,216.0,-228.0,20.0,-986.0,-200.0,2
967,9.0,-256.0,-70.0,204.0,188.0,-256.0,-4.0,-977.0,-207.0,2
968,-7.0,-250.0,-77.0,221.0,172.0,-293.0,-39.0,-978.0,-232.0,2
969,-9.0,-249.0,-75.0,221.0,155.0,-340.0,-60.0,-956.0,-234.0,2
970,-10.0,-246.0,-79.0,214.0,116.0,-357.0,-65.0,-953.0,-237.0,2
971,-11.0,-242.0,-78.0,213.0,90.0,-380.0,-61.0,-938.0,-238.0,2
972,-9.0,-241.0,-78.0,217.0,71.0,-410.0,-64.0,-930.0,-245.0,2
973,-14.0,-243.0,-89.0,213.0,54.0,-442.0,-93.0,-932.0,-275.0,2
974,-12.0,-233.0,-86.0,191.0,47.0,-490.0,-76.0,-905.0,-269.0,2
975,-11.0,-232.0,-82.0,170.0,25.0,-496.0,-74.0,-907.0,-260.0,2
976,-9.0,-231.0,-86.0,145.0,20.0,-505.0,-65.0,-911.0,-280.0,2
977,-8.0,-231.0,-88.0,106.0,24.0,-512.0,-75.0,-907.0,-269.0,2
978,-11.0,-230.0,-84.0,70.0,34.0,-533.0,-57.0,-895.0,-264.0,2
979,2.0,-231.0,-84.0,34.0,24.0,-501.0,-25.0,-901.0,-255.0,2
980,8.0,-231.0,-76.0,6.0,28.0,-477.0,0.0,-895.0,-227.0,2
981,13.0,-228.0,-72.0,4.0,46.0,-466.0,15.0,-889.0,-203.0,2
982,14.0,-228.0,-64.0,17.0,53.0,-457.0,25.0,-881.0,-183.0,2
983,9.0,-228.0,-58.0,40.0,50.0,-445.0,25.0,-882.0,-166.0,2
984,17.0,-216.0,-54.0,63.0,49.0,-464.0,49.0,-840.0,-141.0,2
985,22.0,-208.0,-52.0,99.0,16.0,-437.0,71.0,-821.0,-125.0,2
986,28.0,-203.0,-48.0,139.0,-8.0,-400.0,81.0,-794.0,-120.0,2
987,26.0,-194.0,-50.0,182.0,-17.0,-370.0,89.0,-745.0,-117.0,2
988,26.0,-186.0,-51.0,224.0,-24.0,-352.0,81.0,-721.0,-128.0,2
989,29.0,-182.0,-59.0,244.0,-44.0,-328.0,94.0,-707.0,-157.0,2
990,37.0,-180.0,-66.0,235.0,-73.0,-305.0,116.0,-704.0,-188.0,2
991,43.0,-176.0,-70.0,182.0,-94.0,-284.0,138.0,-704.0,-206.0,2
992,44.0,-175.0,-73.0,112.0,-112.0,-275.0,145.0,-705.0,-218.0,2
993,45.0,-178.0,-68.0,31.0,-127.0,-268.0,146.0,-708.0,-213.0,2
994,45.0,-176.0,-63.0,-44.0,-134.0,-269.0,149.0,-701.0,-171.0,2
995,47.0,-182.0,-58.0,-95.0,-134.0,-265.0,155.0,-718.0,-163.0,2
996,42.0,-195.0,-64.0,-131.0,-131.0,-271.0,115.0,-769.0,-180.0,2
997,40.0,-186.0,-60.0,-173.0,-109.0,-317.0,122.0,-747.0,-175.0,2
998,43.0,-194.0,-69.0,-213.0,-134.0,-304.0,139.0,-752.0,-166.0,2
999,44.0,-199.0,-63.0,-247.0,-135.0,-271.0,151.0,-787.0,-185.0,2
1000,39.0,-209.0,-63.0,-283.0,-114.0,-262.0,127.0,-807.0,-172.0,2
1001,35.0,-205.0,-55.0,-312.0,-85.0,-275.0,109.0,-819.0,-157.0,2
1002,39.0,-214.0,-62.0,-324.0,-88.0,-271.0,117.0,-840.0,-159.0,2
1003,44.0,-221.0,-58.0,-320.0,-90.0,-231.0,130.0,-862.0,-153.0,2
1004,42.0,-225.0,-50.0,-306.0,-64.0,-196.0,129.0,-872.0,-135.0,2
1005,35.0,-233.0,-49.0,-282.0,-31.0,-170.0,106.0,-899.0,-128.0,2
1006,34.0,-232.0,-52.0,-257.0,-2.0,-166.0,111.0,-895.0,-106.0,2
1007,44.0,-236.0,-46.0,-222.0,-1.0,-123.0,133.0,-907.0,-96.0,2
1008,41.0,-238.0,-45.0,-185.0,2.0,-78.0,137.0,-920.0,-96.0,2
1009,43.0,-240.0,-39.0,-151.0,13.0,-36.0,139.0,-916.0,-83.0,2
1010,43.0,-239.0,-39.0,-112.0,16.0,-2.0,143.0,-921.0,-81.0,2
1011,42.0,-237.0,-35.0,-73.0,11.0,27.0,139.0,-915.0,-67.0,2
1012,43.0,-238.0,-37.0,-39.0,1.0,54.0,140.0,-908.0,-68.0,2
1013,45.0,-231.0,-32.0,-8.0,-12.0,84.0,136.0,-906.0,-80.0,2
1014,47.0,-236.0,-41.0,15.0,-25.0,108.0,154.0,-915.0,-92.0,2
1015,46.0,-237.0,-40.0,26.0,-35.0,125.0,153.0,-913.0,-87.0,2
1016,46.0,-237.0,-44.0,24.0,-45.0,136.0,144.0,-915.0,-80.0,2
1017,45.0,-236.0,-33.0,21.0,-57.0,148.0,137.0,-915.0,-64.0,2
1018,42.0,-240.0,-32.0,22.0,-74.0,159.0,145.0,-928.0,-64.0,2
1019,40.0,-241.0,-35.0,23.0,-89.0,164.0,136.0,-927.0,-40.0,2
1020,36.0,-240.0,-31.0,30.0,-107.0,169.0,124.0,-926.0,-37.0,2
1021,34.0,-239.0,-28.0,43.0,-127.0,179.0,110.0,-926.0,-39.0,2
1022,34.0,-238.0,-29.0,58.0,-138.0,185.0,99.0,-922.0,-43.0,2
1023,29.0,-238.0,-36.0,68.0,-148.0,195.0,83.0,-915.0,-55.0,2
1024,27.0,-237.0,-44.0,67.0,-155.0,204.0,78.0,-919.0,-82.0,2
1025,27.0,-241.0,-49.0,49.0,-151.0,206.0,78.0,-922.0,-104.0,2
1026,22.0,-235.0,-46.0,23.0,-142.0,199.0,62.0,-929.0,-110.0,2
1027,18.0,-241.0,-50.0,-9.0,-132.0,188.0,43.0,-941.0,-123.0,2
1028,8.0,-245.0,-50.0,-48.0,-133.0,177.0,13.0,-939.0,-121.0,2
1029,1.0,-245.0,-46.0,-81.0,-144.0,171.0,-15.0,-948.0,-105.0,2
1030,2.0,-249.0,-45.0,-106.0,-163.0,174.0,-17.0,-957.0,-97.0,2
1031,6.0,-253.0,-37.0,-123.0,-183.0,177.0,-9.0,-976.0,-98.0,2
1032,5.0,-257.0,-44.0,-140.0,-198.0,172.0,-3.0,-1000.0,-92.0,2
1033,5.0,-259.0,-45.0,-149.0,-208.0,168.0,-2.0,-1011.0,-101.0,2
1034,10.0,-262.0,-50.0,-162.0,-213.0,168.0,8.0,-1027.0,-120.0,2
1035,18.0,-266.0,-51.0,-177.0,-211.0,162.0,26.0,-1044.0,-132.0,2
1036,25.0,-271.0,-50.0,-191.0,-200.0,149.0,54.0,-1056.0,-141.0,2
1037,26.0,-274.0,-54.0,-201.0,-187.0,125.0,60.0,-1061.0,-140.0,2
1038,24.0,-271.0,-57.0,-204.0,-178.0,102.0,66.0,-1055.0,-145.0,2
1039,31.0,-274.0,-55.0,-201.0,-177.0,79.0,71.0,-1052.0,-143.0,2
1040,32.0,-265.0,-58.0,-192.0,-184.0,61.0,84.0,-1046.0,-152.0,2
1041,35.0,-264.0,-58.0,-187.0,-191.0,35.0,97.0,-1039.0,-153.0,2
1042,40.0,-268.0,-60.0,-189.0,-199.0,21.0,127.0,-1045.0,-159.0,2
1043,49.0,-269.0,-52.0,-195.0,-198.0,7.0,153.0,-1048.0,-135.0,2
1044,50.0,-276.0,-44.0,-199.0,-196.0,-2.0,173.0,-1071.0,-115.0,2
1045,27.0,-288.0,-39.0,-196.0,-187.0,-23.0,108.0,-1106.0,-46.0,2
1046,56.0,-280.0,-16.0,-181.0,-173.0,-114.0,198.0,-1081.0,-20.0,2
1047,68.0,-287.0,-19.0,-144.0,-229.0,-69.0,229.0,-1113.0,8.0,2
1048,65.0,-293.0,-13.0,-105.0,-235.0,-35.0,216.0,-1142.0,48.0,2
1049,49.0,-311.0,-7.0,-65.0,-222.0,-41.0,161.0,-1186.0,37.0,2
1050,38.0,-305.0,-10.0,-36.0,-219.0,-95.0,131.0,-1171.0,46.0,2
1051,48.0,-310.0,-10.0,-9.0,-266.0,-97.0,162.0,-1195.0,37.0,2
1052,44.0,-315.0,-12.0,28.0,-328.0,-74.0,147.0,-1207.0,27.0,2
1053,39.0,-319.0,-15.0,52.0,-350.0,-73.0,122.0,-1211.0,10.0,2
1054,29.0,-320.0,-26.0,73.0,-360.0,-81.0,78.0,-1230.0,-14.0,2
1055,28.0,-320.0,-28.0,88.0,-374.0,-97.0,72.0,-1218.0,-39.0,2
1056,36.0,-322.0,-42.0,106.0,-395.0,-76.0,102.0,-1242.0,-98.0,2
1057,43.0,-321.0,-53.0,108.0,-390.0,-51.0,117.0,-1245.0,-126.0,2
1058,41.0,-316.0,-50.0,99.0,-355.0,-38.0,121.0,-1233.0,-134.0,2
1059,41.0,-309.0,-53.0,91.0,-315.0,-37.0,107.0,-1199.0,-123.0,2
1060,36.0,-307.0,-53.0,87.0,-288.0,-36.0,106.0,-1175.0,-125.0,2
1061,36.0,-295.0,-55.0,79.0,-277.0,-49.0,114.0,-1149.0,-131.0,2
1062,36.0,-289.0,-56.0,61.0,-275.0,-70.0,109.0,-1128.0,-141.0,2
1063,30.0,-280.0,-58.0,41.0,-279.0,-91.0,94.0,-1093.0,-155.0,2
1064,32.0,-272.0,-63.0,36.0,-289.0,-118.0,104.0,-1067.0,-185.0,2
1065,40.0,-273.0,-83.0,33.0,-299.0,-155.0,119.0,-1062.0,-250.0,2
1066,45.0,-275.0,-103.0,10.0,-298.0,-184.0,133.0,-1076.0,-326.0,2
1067,47.0,-285.0,-119.0,-25.0,-281.0,-215.0,150.0,-1125.0,-408.0,2
1068,48.0,-298.0,-136.0,-70.0,-251.0,-245.0,158.0,-1169.0,-468.0,2
1069,47.0,-314.0,-144.0,-131.0,-222.0,-284.0,149.0,-1227.0,-511.0,2
1070,42.0,-325.0,-139.0,-200.0,-204.0,-328.0,122.0,-1278.0,-495.0,2
1071,35.0,-332.0,-134.0,-251.0,-200.0,-377.0,94.0,-1313.0,-451.0,2
1072,28.0,-340.0,-123.0,-268.0,-205.0,-423.0,63.0,-1327.0,-420.0,2
1073,13.0,-331.0,-116.0,-245.0,-200.0,-451.0,22.0,-1281.0,-379.0,2
1074,13.0,-315.0,-107.0,-200.0,-192.0,-460.0,10.0,-1219.0,-361.0,2
1075,5.0,-291.0,-101.0,-152.0,-185.0,-458.0,0.0,-1140.0,-346.0,2
1076,5.0,-264.0,-106.0,-107.0,-179.0,-440.0,-21.0,-1045.0,-345.0,2
1077,2.0,-235.0,-101.0,-74.0,-177.0,-413.0,-21.0,-943.0,-328.0,2
1078,0.0,-221.0,-107.0,-50.0,-184.0,-381.0,-18.0,-863.0,-335.0,2
1079,2.0,-198.0,-101.0,-34.0,-194.0,-349.0,-21.0,-791.0,-348.0,2
1080,-2.0,-183.0,-109.0,-33.0,-205.0,-318.0,-25.0,-721.0,-354.0,2
1081,-7.0,-173.0,-103.0,-42.0,-223.0,-296.0,-51.0,-679.0,-353.0,2
1082,-13.0,-167.0,-107.0,-56.0,-256.0,-270.0,-75.0,-656.0,-357.0,2
1083,-22.0,-162.0,-112.0,-86.0,-293.0,-256.0,-108.0,-651.0,-377.0,2
1084,-30.0,-165.0,-118.0,-127.0,-335.0,-244.0,-138.0,-657.0,-391.0,2
1085,-32.0,-171.0,-121.0,-185.0,-377.0,-233.0,-160.0,-691.0,-441.0,2
1086,-32.0,-171.0,-125.0,-278.0,-410.0,-225.0,-160.0,-688.0,-424.0,2
1087,-36.0,-177.0,-83.0,-369.0,-425.0,-219.0,-163.0,-692.0,-276.0,2
1088,-38.0,-195.0,-74.0,-368.0,-426.0,-216.0,-168.0,-743.0,-240.0,2
1089,-38.0,-212.0,-78.0,-318.0,-423.0,-201.0,-181.0,-806.0,-237.0,2
1090,-42.0,-226.0,-72.0,-258.0,-420.0,-175.0,-181.0,-858.0,-216.0,2
1091,-36.0,-239.0,-71.0,-177.0,-412.0,-141.0,-175.0,-904.0,-217.0,2
1092,-29.0,-253.0,-62.0,-82.0,-389.0,-91.0,-151.0,-939.0,-176.0,2
1093,-26.0,-262.0,-61.0,73.0,-353.0,-26.0,-152.0,-1005.0,-191.0,2
1094,-27.0,-258.0,-79.0,201.0,-301.0,2.0,-132.0,-1009.0,-237.0,2
1095,-17.0,-259.0,-89.0,296.0,-266.0,28.0,-98.0,-1008.0,-267.0,2
1096,-10.0,-258.0,-88.0,353.0,-241.0,55.0,-70.0,-999.0,-274.0,2
1097,2.0,-254.0,-95.0,387.0,-213.0,89.0,-39.0,-976.0,-290.0,2
1098,10.0,-249.0,-97.0,398.0,-171.0,121.0,-7.0,-964.0,-310.0,2
1099,13.0,-240.0,-98.0,379.0,-121.0,157.0,10.0,-949.0,-320.0,2
1100,20.0,-242.0,-107.0,340.0,-73.0,197.0,71.0,-913.0,-309.0,2
1101,20.0,-238.0,-98.0,302.0,-36.0,282.0,33.0,-924.0,-302.0,2
1102,19.0,-234.0,-92.0,257.0,29.0,299.0,39.0,-909.0,-288.0,2
1103,17.0,-230.0,-89.0,223.0,64.0,335.0,36.0,-898.0,-288.0,2
1104,25.0,-228.0,-92.0,193.0,71.0,381.0,68.0,-896.0,-287.0,2
1105,32.0,-236.0,-92.0,158.0,73.0,436.0,91.0,-913.0,-292.0,2
1106,34.0,-235.0,-88.0,121.0,86.0,443.0,103.0,-926.0,-280.0,2
1107,39.0,-243.0,-83.0,97.0,84.0,443.0,113.0,-932.0,-266.0,2
1108,36.0,-246.0,-82.0,87.0,80.0,438.0,111.0,-942.0,-255.0,2
1109,34.0,-246.0,-83.0,77.0,82.0,441.0,101.0,-949.0,-243.0,2
1110,32.0,-247.0,-74.0,74.0,85.0,437.0,98.0,-947.0,-219.0,2
1111,32.0,-246.0,-74.0,81.0,79.0,436.0,89.0,-948.0,-219.0,2
1112,25.0,-240.0,-71.0,85.0,75.0,426.0,68.0,-934.0,-226.0,2
1113,21.0,-240.0,-78.0,85.0,78.0,417.0,54.0,-919.0,-214.0,2
1114,19.0,-237.0,-75.0,80.0,84.0,403.0,48.0,-917.0,-224.0,2
1115,15.0,-234.0,-74.0,71.0,101.0,383.0,20.0,-909.0,-239.0,2
1116,2.0,-231.0,-71.0,59.0,120.0,357.0,-10.0,-900.0,-227.0,2
1117,-4.0,-230.0,-71.0,54.0,139.0,336.0,-41.0,-884.0,-206.0,2
1118,-8.0,-228.0,-68.0,59.0,154.0,321.0,-66.0,-872.0,-197.0,2
1119,-11.0,-221.0,-66.0,71.0,166.0,316.0,-71.0,-864.0,-196.0,2
1120,-11.0,-211.0,-70.0,79.0,185.0,302.0,-80.0,-834.0,-201.0,2
1121,-12.0,-212.0,-73.0,79.0,213.0,298.0,-98.0,-825.0,-216.0,2
1122,-18.0,-207.0,-80.0,61.0,250.0,294.0,-108.0,-812.0,-237.0,2
1123,-23.0,-201.0,-83.0,26.0,302.0,301.0,-122.0,-795.0,-253.0,2
1124,-25.0,-198.0,-80.0,-28.0,340.0,308.0,-135.0,-783.0,-241.0,2
1125,-23.0,-197.0,-75.0,-76.0,372.0,319.0,-126.0,-777.0,-243.0,2
1126,-24.0,-197.0,-73.0,-121.0,403.0,322.0,-131.0,-776.0,-224.0,2
1127,4.0,-170.0,-46.0,-164.0,425.0,331.0,-16.0,-712.0,-175.0,2
1128,-23.0,-201.0,-69.0,-186.0,426.0,388.0,-111.0,-795.0,-207.0,2
1129,-33.0,-203.0,-62.0,-211.0,472.0,341.0,-146.0,-786.0,-172.0,2
1130,-26.0,-202.0,-57.0,-221.0,457.0,319.0,-128.0,-788.0,-165.0,2
1131,-20.0,-204.0,-53.0,-217.0,437.0,301.0,-123.0,-795.0,-156.0,2
1132,-13.0,-203.0,-53.0,-207.0,417.0,274.0,-83.0,-802.0,-162.0,2
1133,-16.0,-211.0,-62.0,-208.0,380.0,238.0,-92.0,-820.0,-161.0,2
1134,-5.0,-206.0,-54.0,-221.0,377.0,222.0,-46.0,-815.0,-138.0,2
1135,-14.0,-223.0,-55.0,-213.0,359.0,232.0,-102.0,-860.0,-144.0,2
1136,-21.0,-226.0,-52.0,-206.0,370.0,177.0,-109.0,-867.0,-135.0,2
1137,-22.0,-229.0,-51.0,-182.0,347.0,146.0,-107.0,-878.0,-128.0,2
1138,-23.0,-228.0,-52.0,-158.0,321.0,110.0,-104.0,-885.0,-137.0,2
1139,-19.0,-230.0,-53.0,-133.0,300.0,82.0,-109.0,-886.0,-139.0,2
1140,-19.0,-231.0,-54.0,-111.0,286.0,56.0,-110.0,-892.0,-145.0,2
1141,-21.0,-232.0,-56.0,-93.0,279.0,30.0,-111.0,-891.0,-137.0,2
1142,-25.0,-231.0,-49.0,-77.0,276.0,5.0,-124.0,-890.0,-128.0,2
1143,-23.0,-234.0,-54.0,-62.0,274.0,-5.0,-104.0,-880.0,-119.0,2
1144,-30.0,-235.0,-46.0,-41.0,271.0,3.0,-136.0,-893.0,-94.0,2
1145,-33.0,-233.0,-39.0,-21.0,288.0,-24.0,-149.0,-898.0,-88.0,2
1146,-31.0,-231.0,-42.0,5.0,291.0,-50.0,-142.0,-904.0,-92.0,2
1147,-25.0,-239.0,-43.0,31.0,290.0,-57.0,-127.0,-907.0,-92.0,2
1148,-21.0,-236.0,-47.0,50.0,300.0,-65.0,-109.0,-911.0,-103.0,2
1149,-15.0,-239.0,-47.0,66.0,317.0,-76.0,-93.0,-915.0,-111.0,2
1150,-12.0,-241.0,-49.0,77.0,338.0,-86.0,-84.0,-922.0,-116.0,2
1151,-12.0,-243.0,-50.0,84.0,358.0,-96.0,-81.0,-934.0,-123.0,2
1152,-11.0,-245.0,-47.0,87.0,375.0,-104.0,-81.0,-941.0,-117.0,2
1153,-1.0,-237.0,-45.0,86.0,383.0,-107.0,-46.0,-939.0,-110.0,2
1154,-11.0,-253.0,-51.0,88.0,370.0,-75.0,-64.0,-974.0,-112.0,2
1155,-12.0,-251.0,-45.0,80.0,392.0,-101.0,-79.0,-963.0,-101.0,2
1156,-2.0,-254.0,-47.0,72.0,391.0,-105.0,-37.0,-986.0,-103.0,2
1157,1.0,-254.0,-50.0,56.0,378.0,-110.0,-13.0,-976.0,-108.0,2
1158,1.0,-256.0,-47.0,38.0,372.0,-120.0,-25.0,-980.0,-108.0,2
1159,6.0,-253.0,-45.0,25.0,374.0,-122.0,-18.0,-979.0,-107.0,2
1160,0.0,-256.0,-49.0,13.0,381.0,-117.0,-21.0,-989.0,-101.0,2
1161,-3.0,-258.0,-47.0,8.0,386.0,-113.0,-36.0,-997.0,-96.0,2
1162,-7.0,-257.0,-47.0,6.0,386.0,-107.0,-50.0,-1003.0,-100.0,2
1163,-11.0,-256.0,-48.0,6.0,377.0,-103.0,-68.0,-999.0,-109.0,2
1164,-16.0,-254.0,-47.0,5.0,359.0,-93.0,-87.0,-1004.0,-120.0,2
1165,-15.0,-259.0,-48.0,-10.0,332.0,-84.0,-103.0,-991.0,-130.0,2
1166,-21.0,-258.0,-54.0,-29.0,313.0,-67.0,-126.0,-1002.0,-134.0,2
1167,-22.0,-258.0,-49.0,-46.0,301.0,-49.0,-118.0,-1002.0,-128.0,2
1168,-22.0,-259.0,-50.0,-57.0,299.0,-30.0,-126.0,-1003.0,-124.0,2
1169,-25.0,-259.0,-49.0,-70.0,304.0,-14.0,-131.0,-1006.0,-120.0,2
1170,-29.0,-259.0,-46.0,-83.0,313.0,8.0,-135.0,-1009.0,-112.0,2
1171,-29.0,-261.0,-47.0,-93.0,324.0,23.0,-143.0,-1019.0,-106.0,2
1172,-14.0,-244.0,-35.0,-98.0,334.0,45.0,-67.0,-983.0,-82.0,2
1173,-25.0,-269.0,-49.0,-90.0,316.0,120.0,-144.0,-1046.0,-94.0,2
1174,-33.0,-264.0,-27.0,-83.0,361.0,106.0,-159.0,-1033.0,-68.0,2
1175,-32.0,-271.0,-35.0,-72.0,386.0,91.0,-158.0,-1048.0,-73.0,2
1176,-24.0,-270.0,-33.0,-63.0,386.0,95.0,-142.0,-1054.0,-66.0,2
1177,-23.0,-278.0,-34.0,-50.0,379.0,126.0,-127.0,-1082.0,-54.0,2
1178,-28.0,-280.0,-32.0,-41.0,403.0,132.0,-141.0,-1086.0,-44.0,2
1179,-28.0,-282.0,-25.0,-32.0,428.0,120.0,-141.0,-1092.0,-23.0,2
1180,-35.0,-289.0,-27.0,-15.0,436.0,130.0,-164.0,-1123.0,-17.0,2
1181,-30.0,-293.0,-16.0,-1.0,451.0,122.0,-150.0,-1126.0,-4.0,2
1182,-28.0,-300.0,-17.0,16.0,458.0,119.0,-148.0,-1135.0,19.0,2
1183,-24.0,-301.0,-16.0,33.0,463.0,124.0,-137.0,-1151.0,30.0,2
1184,-20.0,-302.0,-14.0,49.0,474.0,129.0,-119.0,-1149.0,22.0,2
1185,-22.0,-300.0,-7.0,61.0,493.0,129.0,-116.0,-1158.0,40.0,2
1186,-20.0,-306.0,-11.0,72.0,507.0,123.0,-109.0,-1167.0,21.0,2
1187,-17.0,-301.0,-20.0,85.0,518.0,107.0,-107.0,-1151.0,4.0,2
1188,-17.0,-294.0,-20.0,90.0,520.0,96.0,-89.0,-1144.0,-12.0,2
1189,-12.0,-293.0,-28.0,95.0,522.0,87.0,-88.0,-1122.0,-22.0,2
1190,-12.0,-285.0,-31.0,103.0,534.0,89.0,-86.0,-1107.0,-32.0,2
1191,-11.0,-283.0,-30.0,114.0,547.0,88.0,-79.0,-1110.0,-56.0,2
1192,-12.0,-291.0,-47.0,119.0,552.0,91.0,-87.0,-1122.0,-90.0,2
1193,-14.0,-288.0,-50.0,101.0,552.0,92.0,-88.0,-1131.0,-118.0,2
1194,-30.0,-289.0,-48.0,76.0,549.0,95.0,-132.0,-1125.0,-121.0,2
1195,-30.0,-291.0,-59.0,49.0,542.0,109.0,-148.0,-1137.0,-148.0,2
1196,-38.0,-290.0,-56.0,13.0,526.0,127.0,-164.0,-1137.0,-152.0,2
1197,-38.0,-297.0,-64.0,-1.0,500.0,144.0,-175.0,-1141.0,-182.0,2
1198,-40.0,-291.0,-71.0,-3.0,473.0,164.0,-192.0,-1144.0,-223.0,2
1199,-43.0,-294.0,-87.0,-1.0,451.0,191.0,-197.0,-1135.0,-272.0,2
1200,-41.0,-293.0,-98.0,2.0,442.0,231.0,-188.0,-1149.0,-320.0,2
1201,-44.0,-302.0,-106.0,1.0,437.0,269.0,-206.0,-1174.0,-358.0,2
1202,-55.0,-311.0,-117.0,-7.0,419.0,308.0,-239.0,-1202.0,-391.0,2
1203,-65.0,-314.0,-121.0,-24.0,386.0,343.0,-271.0,-1221.0,-423.0,2
1204,-67.0,-320.0,-132.0,-42.0,328.0,390.0,-285.0,-1250.0,-456.0,2
1205,-71.0,-324.0,-136.0,-62.0,234.0,444.0,-298.0,-1254.0,-482.0,2
1206,-61.0,-330.0,-140.0,-76.0,153.0,498.0,-275.0,-1280.0,-498.0,2
1207,-48.0,-324.0,-137.0,-81.0,82.0,544.0,-224.0,-1272.0,-488.0,2
1208,-26.0,-323.0,-142.0,-77.0,31.0,573.0,-152.0,-1264.0,-479.0,2
1209,-7.0,-317.0,-131.0,-63.0,11.0,566.0,-73.0,-1226.0,-474.0,2
1210,2.0,-300.0,-135.0,-40.0,13.0,520.0,-27.0,-1152.0,-464.0,2
1211,11.0,-279.0,-133.0,-8.0,38.0,455.0,9.0,-1085.0,-446.0,2
1212,19.0,-266.0,-125.0,36.0,73.0,392.0,30.0,-1030.0,-433.0,2
1213,32.0,-255.0,-128.0,84.0,115.0,338.0,81.0,-989.0,-438.0,2
1214,34.0,-235.0,-122.0,137.0,164.0,284.0,98.0,-906.0,-423.0,2
1215,39.0,-217.0,-121.0,194.0,225.0,219.0,120.0,-857.0,-420.0,2
1216,46.0,-202.0,-119.0,262.0,267.0,173.0,149.0,-804.0,-412.0,2
1217,55.0,-199.0,-120.0,313.0,291.0,129.0,196.0,-779.0,-414.0,2
1218,75.0,-196.0,-124.0,348.0,303.0,95.0,263.0,-779.0,-414.0,2
1219,93.0,-193.0,-122.0,352.0,323.0,59.0,321.0,-762.0,-419.0,2
1220,103.0,-186.0,-119.0,326.0,351.0,29.0,354.0,-745.0,-406.0,2
1221,103.0,-187.0,-109.0,277.0,387.0,8.0,363.0,-741.0,-373.0,2
1222,101.0,-198.0,-104.0,228.0,434.0,-19.0,361.0,-787.0,-344.0,2
1223,84.0,-207.0,-105.0,180.0,479.0,-55.0,317.0,-838.0,-346.0,2
1224,77.0,-214.0,-104.0,124.0,505.0,-87.0,262.0,-861.0,-328.0,2
1225,68.0,-226.0,-95.0,64.0,510.0,-115.0,232.0,-911.0,-329.0,2
1226,62.0,-243.0,-97.0,-14.0,514.0,-150.0,210.0,-952.0,-322.0,2
1227,52.0,-247.0,-87.0,-77.0,498.0,-188.0,184.0,-957.0,-278.0,2
1228,44.0,-249.0,-70.0,-103.0,450.0,-218.0,153.0,-950.0,-208.0,2
1229,32.0,-253.0,-46.0,-57.0,410.0,-249.0,109.0,-953.0,-102.0,2
1230,24.0,-254.0,-67.0,69.0,375.0,-282.0,67.0,-970.0,-182.0,2
1231,12.0,-257.0,-82.0,146.0,337.0,-299.0,25.0,-993.0,-252.0,2
1232,3.0,-254.0,-75.0,146.0,291.0,-321.0,-7.0,-992.0,-249.0,2
1233,-9.0,-257.0,-82.0,122.0,231.0,-357.0,-41.0,-1014.0,-251.0,2
1234,-12.0,-254.0,-84.0,90.0,177.0,-431.0,-62.0,-1002.0,-264.0,2
1235,-22.0,-251.0,-82.0,52.0,101.0,-478.0,-111.0,-977.0,-262.0,2
1236,-33.0,-253.0,-83.0,12.0,18.0,-495.0,-143.0,-962.0,-260.0,2
1237,-41.0,-248.0,-83.0,-9.0,-29.0,-512.0,-183.0,-957.0,-262.0,2
1238,-47.0,-244.0,-82.0,-31.0,-67.0,-535.0,-204.0,-946.0,-253.0,2
1239,-52.0,-245.0,-87.0,-52.0,-109.0,-535.0,-221.0,-948.0,-269.0,2
1240,-48.0,-246.0,-84.0,-71.0,-144.0,-534.0,-223.0,-940.0,-261.0,2
1241,-47.0,-241.0,-81.0,-85.0,-165.0,-549.0,-211.0,-925.0,-255.0,2
1242,-41.0,-237.0,-82.0,-89.0,-184.0,-565.0,-174.0,-911.0,-255.0,2
1243,-38.0,-233.0,-76.0,-79.0,-204.0,-557.0,-171.0,-900.0,-244.0,2
1244,-39.0,-226.0,-74.0,-58.0,-221.0,-557.0,-171.0,-878.0,-221.0,2
1245,-32.0,-224.0,-68.0,-31.0,-237.0,-552.0,-164.0,-862.0,-213.0,2
1246,-26.0,-215.0,-66.0,0.0,-260.0,-535.0,-124.0,-848.0,-197.0,2
1247,-18.0,-212.0,-62.0,56.0,-280.0,-519.0,-104.0,-822.0,-185.0,2
1248,-12.0,-206.0,-60.0,112.0,-303.0,-502.0,-80.0,-806.0,-187.0,2
1249,-18.0,-197.0,-67.0,158.0,-325.0,-473.0,-72.0,-783.0,-200.0,2
1250,-8.0,-196.0,-70.0,190.0,-352.0,-445.0,-48.0,-750.0,-208.0,2
1251,2.0,-189.0,-67.0,203.0,-388.0,-415.0,-16.0,-734.0,-209.0,2
1252,9.0,-189.0,-69.0,197.0,-427.0,-394.0,12.0,-730.0,-219.0,2
1253,18.0,-185.0,-75.0,179.0,-459.0,-374.0,46.0,-730.0,-222.0,2
1254,21.0,-182.0,-73.0,143.0,-484.0,-359.0,65.0,-726.0,-219.0,2
1255,29.0,-186.0,-69.0,101.0,-509.0,-338.0,87.0,-726.0,-203.0,2
1256,34.0,-189.0,-65.0,63.0,-534.0,-318.0,112.0,-724.0,-184.0,2
1257,40.0,-185.0,-60.0,22.0,-550.0,-303.0,136.0,-727.0,-168.0,2
1258,49.0,-190.0,-58.0,-10.0,-557.0,-294.0,165.0,-742.0,-159.0,2
1259,53.0,-190.0,-52.0,-43.0,-560.0,-285.0,166.0,-750.0,-141.0,2
1260,60.0,-199.0,-54.0,-68.0,-558.0,-281.0,202.0,-781.0,-137.0,2
1261,67.0,-200.0,-58.0,-87.0,-548.0,-278.0,225.0,-794.0,-141.0,2
1262,66.0,-205.0,-56.0,-102.0,-536.0,-279.0,231.0,-805.0,-139.0,2
1263,72.0,-207.0,-56.0,-114.0,-519.0,-271.0,251.0,-823.0,-140.0,2
1264,77.0,-203.0,-44.0,-124.0,-483.0,-284.0,261.0,-821.0,-146.0,2
1265,79.0,-219.0,-60.0,-133.0,-469.0,-279.0,268.0,-849.0,-147.0,2
1266,79.0,-220.0,-55.0,-149.0,-460.0,-242.0,263.0,-861.0,-139.0,2
1267,74.0,-223.0,-52.0,-163.0,-416.0,-219.0,254.0,-872.0,-132.0,2
1268,69.0,-227.0,-50.0,-161.0,-380.0,-201.0,232.0,-877.0,-130.0,2
1269,66.0,-230.0,-49.0,-158.0,-349.0,-171.0,230.0,-892.0,-128.0,2
1270,63.0,-232.0,-50.0,-155.0,-323.0,-146.0,218.0,-898.0,-109.0,2
1271,54.0,-232.0,-46.0,-153.0,-299.0,-114.0,195.0,-908.0,-105.0,2
1272,57.0,-240.0,-47.0,-149.0,-276.0,-82.0,185.0,-921.0,-108.0,2
1273,52.0,-245.0,-48.0,-147.0,-257.0,-49.0,171.0,-935.0,-102.0,2
1274,45.0,-242.0,-44.0,-142.0,-238.0,-21.0,153.0,-941.0,-96.0,2
1275,45.0,-245.0,-42.0,-132.0,-226.0,8.0,133.0,-939.0,-86.0,2
1276,41.0,-246.0,-42.0,-114.0,-215.0,39.0,130.0,-949.0,-97.0,2
1277,39.0,-245.0,-46.0,-96.0,-204.0,62.0,132.0,-951.0,-95.0,2
1278,42.0,-247.0,-45.0,-85.0,-199.0,77.0,128.0,-950.0,-100.0,2
1279,37.0,-244.0,-49.0,-82.0,-192.0,90.0,121.0,-944.0,-106.0,2
1280,42.0,-246.0,-49.0,-83.0,-181.0,94.0,140.0,-955.0,-108.0,2
1281,45.0,-249.0,-41.0,-87.0,-170.0,96.0,139.0,-959.0,-99.0,2
1282,46.0,-248.0,-43.0,-89.0,-158.0,96.0,141.0,-958.0,-95.0,2
1283,46.0,-248.0,-43.0,-86.0,-146.0,102.0,145.0,-957.0,-87.0,2
1284,40.0,-245.0,-38.0,-79.0,-141.0,104.0,128.0,-949.0,-69.0,2
1285,47.0,-249.0,-41.0,-62.0,-145.0,113.0,134.0,-950.0,-81.0,2
1286,46.0,-243.0,-41.0,-51.0,-146.0,120.0,141.0,-952.0,-87.0,2
1287,45.0,-247.0,-42.0,-44.0,-141.0,122.0,149.0,-956.0,-84.0,2
1288,43.0,-247.0,-44.0,-38.0,-139.0,120.0,139.0,-940.0,-84.0,2
1289,37.0,-243.0,-40.0,-35.0,-137.0,124.0,115.0,-942.0,-80.0,2
1290,29.0,-249.0,-53.0,-33.0,-131.0,121.0,101.0,-937.0,-75.0,2
1291,41.0,-247.0,-52.0,-40.0,-127.0,78.0,133.0,-966.0,-126.0,2
1292,47.0,-253.0,-49.0,-61.0,-146.0,105.0,149.0,-986.0,-121.0,2
1293,41.0,-254.0,-46.0,-88.0,-134.0,115.0,127.0,-976.0,-96.0,2
1294,30.0,-254.0,-38.0,-97.0,-116.0,113.0,88.0,-971.0,-75.0,2
1295,23.0,-252.0,-41.0,-83.0,-118.0,117.0,64.0,-972.0,-79.0,2
1296,20.0,-254.0,-38.0,-62.0,-135.0,128.0,60.0,-973.0,-67.0,2
1297,21.0,-257.0,-39.0,-43.0,-168.0,138.0,51.0,-972.0,-72.0,2
1298,20.0,-255.0,-39.0,-28.0,-196.0,143.0,53.0,-978.0,-83.0,2
1299,18.0,-255.0,-40.0,-24.0,-226.0,143.0,51.0,-999.0,-83.0,2
1300,17.0,-260.0,-39.0,-23.0,-253.0,142.0,42.0,-999.0,-75.0,2
1301,15.0,-259.0,-39.0,-17.0,-275.0,138.0,34.0,-1009.0,-80.0,2
1302,14.0,-260.0,-41.0,-13.0,-293.0,139.0,33.0,-1019.0,-88.0,2
1303,15.0,-261.0,-44.0,-13.0,-307.0,137.0,30.0,-1021.0,-94.0,2
1304,16.0,-260.0,-43.0,-15.0,-322.0,138.0,41.0,-1022.0,-101.0,2
1305,20.0,-261.0,-49.0,-17.0,-337.0,131.0,53.0,-1021.0,-105.0,2
1306,23.0,-264.0,-49.0,-16.0,-349.0,126.0,58.0,-1031.0,-112.0,2
1307,27.0,-261.0,-51.0,-18.0,-360.0,118.0,68.0,-1024.0,-125.0,2
1308,29.0,-260.0,-57.0,-26.0,-364.0,112.0,77.0,-1025.0,-136.0,2
1309,31.0,-261.0,-51.0,-36.0,-368.0,102.0,96.0,-1024.0,-134.0,2
1310,37.0,-263.0,-51.0,-44.0,-371.0,98.0,107.0,-1016.0,-125.0,2
1311,38.0,-259.0,-48.0,-47.0,-373.0,90.0,120.0,-1012.0,-119.0,2
1312,43.0,-260.0,-45.0,-42.0,-374.0,88.0,137.0,-1012.0,-95.0,2
1313,49.0,-260.0,-45.0,-38.0,-375.0,83.0,157.0,-1020.0,-96.0,2
1314,52.0,-261.0,-35.0,-42.0,-375.0,83.0,176.0,-1031.0,-66.0,2
1315,59.0,-263.0,-27.0,-48.0,-377.0,80.0,202.0,-1032.0,-34.0,2
1316,60.0,-271.0,-20.0,-45.0,-381.0,81.0,214.0,-1054.0,-3.0,2
1317,63.0,-276.0,-15.0,-38.0,-382.0,75.0,214.0,-1066.0,16.0,2
1318,62.0,-283.0,-1.0,-25.0,-392.0,76.0,213.0,-1094.0,54.0,2
1319,43.0,-284.0,-14.0,-11.0,-376.0,8.0,171.0,-1113.0,66.0,2
1320,62.0,-288.0,-4.0,5.0,-414.0,-14.0,211.0,-1117.0,73.0,2
1321,64.0,-295.0,-9.0,29.0,-456.0,29.0,220.0,-1136.0,50.0,2
1322,50.0,-293.0,-13.0,39.0,-448.0,26.0,172.0,-1137.0,22.0,2
1323,41.0,-291.0,-17.0,43.0,-438.0,5.0,128.0,-1133.0,2.0,2
1324,40.0,-292.0,-18.0,44.0,-441.0,-5.0,113.0,-1132.0,-13.0,2
1325,32.0,-293.0,-31.0,46.0,-460.0,-18.0,97.0,-1142.0,-41.0,2
1326,37.0,-297.0,-43.0,48.0,-471.0,-24.0,108.0,-1150.0,-81.0,2
1327,38.0,-299.0,-46.0,41.0,-466.0,-39.0,120.0,-1155.0,-108.0,2
1328,43.0,-300.0,-54.0,33.0,-441.0,-59.0,130.0,-1174.0,-138.0,2
1329,42.0,-306.0,-55.0,26.0,-407.0,-76.0,113.0,-1201.0,-135.0,2
1330,43.0,-301.0,-56.0,30.0,-356.0,-147.0,118.0,-1177.0,-133.0,2
1331,56.0,-298.0,-56.0,46.0,-354.0,-171.0,185.0,-1168.0,-142.0,2
1332,58.0,-298.0,-56.0,68.0,-351.0,-127.0,195.0,-1152.0,-134.0,2
1333,59.0,-291.0,-56.0,83.0,-311.0,-125.0,189.0,-1128.0,-143.0,2
1334,58.0,-286.0,-66.0,90.0,-269.0,-145.0,178.0,-1105.0,-178.0,2
1335,52.0,-275.0,-74.0,73.0,-242.0,-175.0,174.0,-1080.0,-239.0,2
1336,52.0,-272.0,-96.0,38.0,-237.0,-203.0,167.0,-1078.0,-297.0,2
1337,55.0,-272.0,-111.0,-18.0,-238.0,-237.0,182.0,-1082.0,-368.0,2
1338,60.0,-280.0,-123.0,-83.0,-237.0,-286.0,201.0,-1102.0,-414.0,2
1339,57.0,-293.0,-126.0,-170.0,-229.0,-332.0,198.0,-1138.0,-437.0,2
1340,56.0,-305.0,-131.0,-232.0,-213.0,-379.0,182.0,-1192.0,-434.0,2
1341,50.0,-320.0,-121.0,-278.0,-191.0,-429.0,147.0,-1240.0,-404.0,2
1342,40.0,-324.0,-115.0,-307.0,-161.0,-483.0,112.0,-1251.0,-361.0,2
1343,25.0,-327.0,-96.0,-315.0,-124.0,-531.0,56.0,-1262.0,-319.0,2
1344,13.0,-325.0,-86.0,-297.0,-96.0,-549.0,10.0,-1253.0,-264.0,2
1345,1.0,-317.0,-74.0,-244.0,-76.0,-545.0,-19.0,-1218.0,-225.0,2
1346,-11.0,-299.0,-76.0,-168.0,-56.0,-541.0,-28.0,-1167.0,-210.0,2
1347,-5.0,-293.0,-76.0,-80.0,-75.0,-518.0,-46.0,-1124.0,-238.0,2
1348,-3.0,-275.0,-82.0,8.0,-105.0,-415.0,-52.0,-1058.0,-255.0,2
1349,-11.0,-253.0,-88.0,96.0,-115.0,-357.0,-72.0,-962.0,-269.0,2
1350,-22.0,-224.0,-99.0,153.0,-136.0,-299.0,-99.0,-881.0,-308.0,2
1351,-26.0,-199.0,-102.0,188.0,-171.0,-243.0,-110.0,-805.0,-341.0,2
1352,-31.0,-181.0,-113.0,197.0,-208.0,-192.0,-129.0,-729.0,-370.0,2
1353,-33.0,-170.0,-113.0,180.0,-242.0,-151.0,-142.0,-674.0,-384.0,2
1354,-34.0,-162.0,-116.0,154.0,-271.0,-116.0,-154.0,-641.0,-387.0,2
1355,-41.0,-158.0,-122.0,119.0,-299.0,-92.0,-175.0,-640.0,-425.0,2
1356,-42.0,-150.0,-112.0,70.0,-336.0,-67.0,-204.0,-636.0,-449.0,2
1357,-50.0,-156.0,-142.0,-28.0,-367.0,-53.0,-217.0,-645.0,-504.0,2
1358,-60.0,-157.0,-147.0,-156.0,-405.0,-39.0,-246.0,-653.0,-519.0,2
1359,-65.0,-162.0,-136.0,-339.0,-465.0,-33.0,-266.0,-665.0,-497.0,2
1360,-68.0,-178.0,-112.0,-469.0,-509.0,-22.0,-283.0,-690.0,-386.0,2
1361,-66.0,-194.0,-102.0,-523.0,-541.0,-7.0,-279.0,-742.0,-329.0,2
1362,-53.0,-197.0,-84.0,-521.0,-557.0,16.0,-250.0,-790.0,-344.0,2
1363,-59.0,-217.0,-90.0,-486.0,-550.0,37.0,-261.0,-835.0,-292.0,2
1364,-48.0,-232.0,-83.0,-414.0,-532.0,52.0,-228.0,-884.0,-261.0,2
1365,-42.0,-243.0,-87.0,-316.0,-517.0,67.0,-212.0,-924.0,-267.0,2
1366,-33.0,-248.0,-84.0,-212.0,-492.0,74.0,-180.0,-947.0,-261.0,2
1367,-26.0,-255.0,-86.0,-119.0,-457.0,89.0,-140.0,-973.0,-261.0,2
1368,-13.0,-258.0,-82.0,-35.0,-406.0,105.0,-106.0,-999.0,-259.0,2
1369,-7.0,-260.0,-95.0,50.0,-327.0,135.0,-72.0,-1012.0,-285.0,2
1370,-3.0,-259.0,-103.0,106.0,-245.0,172.0,-45.0,-1012.0,-340.0,2
1371,5.0,-255.0,-111.0,95.0,-157.0,223.0,-13.0,-997.0,-356.0,2
1372,18.0,-252.0,-112.0,53.0,-74.0,278.0,22.0,-979.0,-366.0,2
1373,23.0,-248.0,-111.0,-4.0,-5.0,339.0,43.0,-975.0,-360.0,2
1374,31.0,-245.0,-96.0,-64.0,59.0,379.0,78.0,-961.0,-320.0,2
1375,38.0,-249.0,-86.0,-102.0,112.0,420.0,105.0,-966.0,-284.0,2
1376,44.0,-252.0,-86.0,-120.0,164.0,442.0,134.0,-972.0,-271.0,2
1377,50.0,-250.0,-82.0,-127.0,198.0,461.0,151.0,-967.0,-252.0,2
1378,49.0,-252.0,-80.0,-120.0,217.0,483.0,155.0,-976.0,-236.0,2
1379,49.0,-255.0,-74.0,-106.0,242.0,493.0,152.0,-995.0,-237.0,2
1380,49.0,-253.0,-78.0,-87.0,259.0,487.0,160.0,-999.0,-241.0,2
1381,52.0,-255.0,-77.0,-73.0,275.0,490.0,156.0,-989.0,-241.0,2
1382,49.0,-252.0,-81.0,-64.0,296.0,496.0,156.0,-965.0,-244.0,2
1383,38.0,-247.0,-76.0,-53.0,317.0,520.0,122.0,-987.0,-247.0,2
1384,24.0,-247.0,-84.0,-53.0,336.0,490.0,74.0,-966.0,-264.0,2
1385,22.0,-248.0,-79.0,-66.0,339.0,479.0,58.0,-953.0,-245.0,2
1386,19.0,-247.0,-74.0,-69.0,353.0,476.0,43.0,-949.0,-215.0,2
1387,19.0,-241.0,-68.0,-53.0,368.0,479.0,52.0,-935.0,-213.0,2
1388,16.0,-246.0,-72.0,-25.0,368.0,502.0,20.0,-947.0,-217.0,2
1389,-5.0,-240.0,-71.0,-3.0,402.0,471.0,-39.0,-922.0,-198.0,2
1390,-11.0,-238.0,-66.0,37.0,437.0,434.0,-73.0,-909.0,-191.0,2
1391,-12.0,-233.0,-71.0,70.0,445.0,425.0,-88.0,-894.0,-196.0,2
1392,-12.0,-222.0,-79.0,88.0,461.0,416.0,-100.0,-861.0,-220.0,2
1393,-20.0,-222.0,-75.0,89.0,475.0,444.0,-111.0,-866.0,-245.0,2
1394,-31.0,-216.0,-80.0,68.0,522.0,427.0,-163.0,-845.0,-235.0,2
1395,-35.0,-208.0,-77.0,37.0,563.0,405.0,-177.0,-830.0,-243.0,2
1396,-43.0,-204.0,-79.0,-3.0,582.0,404.0,-181.0,-808.0,-248.0,2
1397,-41.0,-200.0,-77.0,-45.0,595.0,414.0,-198.0,-789.0,-238.0,2
1398,-46.0,-196.0,-70.0,-87.0,607.0,417.0,-211.0,-761.0,-217.0,2
1399,-47.0,-192.0,-72.0,-128.0,613.0,432.0,-209.0,-745.0,-206.0,2
1400,-44.0,-192.0,-64.0,-170.0,612.0,434.0,-201.0,-747.0,-190.0,2
1401,-44.0,-194.0,-63.0,-201.0,607.0,431.0,-195.0,-752.0,-185.0,2
1402,-28.0,-189.0,-55.0,-225.0,595.0,427.0,-128.0,-732.0,-168.0,2
1403,-42.0,-202.0,-56.0,-244.0,575.0,449.0,-190.0,-785.0,-154.0,2
1404,-46.0,-203.0,-54.0,-253.0,583.0,394.0,-206.0,-792.0,-139.0,2
1405,-41.0,-208.0,-53.0,-246.0,549.0,365.0,-185.0,-813.0,-128.0,2
1406,-34.0,-212.0,-53.0,-233.0,513.0,331.0,-167.0,-823.0,-136.0,2
1407,-33.0,-218.0,-51.0,-218.0,483.0,298.0,-160.0,-833.0,-126.0,2
1408,-31.0,-219.0,-52.0,-201.0,462.0,263.0,-145.0,-849.0,-133.0,2
1409,-26.0,-221.0,-50.0,-182.0,449.0,227.0,-130.0,-854.0,-134.0,2
1410,-20.0,-229.0,-63.0,-160.0,431.0,192.0,-117.0,-879.0,-148.0,2
1411,-29.0,-230.0,-53.0,-139.0,421.0,181.0,-150.0,-876.0,-133.0,2
1412,-31.0,-229.0,-49.0,-126.0,432.0,118.0,-156.0,-876.0,-131.0,2
1413,-25.0,-232.0,-51.0,-103.0,417.0,73.0,-132.0,-886.0,-129.0,2
1414,-24.0,-227.0,-56.0,-82.0,397.0,33.0,-117.0,-893.0,-140.0,2
1415,-19.0,-231.0,-54.0,-72.0,394.0,3.0,-112.0,-892.0,-135.0,2
1416,-24.0,-230.0,-47.0,-63.0,396.0,-27.0,-111.0,-884.0,-120.0,2
1417,-14.0,-225.0,-43.0,-44.0,399.0,-47.0,-95.0,-872.0,-94.0,2
1418,-17.0,-230.0,-42.0,-14.0,388.0,-29.0,-108.0,-892.0,-106.0,2
1419,-25.0,-227.0,-44.0,3.0,418.0,-60.0,-125.0,-882.0,-101.0,2
1420,-28.0,-233.0,-41.0,17.0,428.0,-89.0,-129.0,-887.0,-93.0,2
1421,-24.0,-225.0,-38.0,38.0,428.0,-104.0,-126.0,-864.0,-85.0,2
1422,-26.0,-224.0,-42.0,59.0,428.0,-117.0,-128.0,-866.0,-80.0,2
1423,-27.0,-226.0,-40.0,78.0,431.0,-131.0,-132.0,-860.0,-79.0,2
1424,-32.0,-224.0,-40.0,97.0,427.0,-144.0,-142.0,-859.0,-72.0,2
1425,-28.0,-221.0,-39.0,119.0,425.0,-155.0,-131.0,-865.0,-69.0,2
1426,-16.0,-226.0,-40.0,131.0,424.0,-173.0,-99.0,-873.0,-96.0,2
1427,-22.0,-224.0,-48.0,128.0,419.0,-194.0,-124.0,-873.0,-112.0,2
1428,-20.0,-230.0,-52.0,116.0,409.0,-200.0,-106.0,-885.0,-123.0,2
1429,-22.0,-231.0,-50.0,97.0,405.0,-192.0,-126.0,-900.0,-126.0,2
1430,-17.0,-236.0,-51.0,65.0,434.0,-220.0,-107.0,-902.0,-118.0,2
1431,-11.0,-237.0,-53.0,31.0,429.0,-228.0,-78.0,-921.0,-126.0,2
1432,-8.0,-240.0,-54.0,6.0,424.0,-235.0,-63.0,-926.0,-135.0,2
1433,-5.0,-244.0,-53.0,-20.0,425.0,-238.0,-42.0,-949.0,-145.0,2
1434,-3.0,-253.0,-56.0,-46.0,428.0,-241.0,-30.0,-960.0,-147.0,2
1435,-3.0,-252.0,-58.0,-66.0,426.0,-246.0,-30.0,-976.0,-150.0,2
1436,-1.0,-256.0,-55.0,-78.0,420.0,-247.0,-35.0,-998.0,-147.0,2
1437,0.0,-260.0,-55.0,-82.0,414.0,-250.0,-37.0,-1007.0,-141.0,2
1438,-2.0,-264.0,-54.0,-78.0,408.0,-246.0,-39.0,-1016.0,-137.0,2
1439,-3.0,-266.0,-52.0,-70.0,406.0,-247.0,-43.0,-1028.0,-132.0,2
1440,-4.0,-266.0,-50.0,-57.0,407.0,-233.0,-54.0,-1044.0,-120.0,2
1441,-7.0,-270.0,-44.0,-42.0,414.0,-220.0,-61.0,-1052.0,-106.0,2
1442,-11.0,-275.0,-47.0,-27.0,423.0,-201.0,-67.0,-1058.0,-99.0,2
1443,-12.0,-280.0,-43.0,-13.0,432.0,-188.0,-74.0,-1076.0,-98.0,2
1444,-12.0,-280.0,-45.0,-2.0,441.0,-169.0,-92.0,-1093.0,-96.0,2
1445,-14.0,-290.0,-45.0,8.0,447.0,-152.0,-87.0,-1116.0,-94.0,2
1446,-10.0,-292.0,-44.0,17.0,455.0,-127.0,-85.0,-1128.0,-96.0,2
1447,-11.0,-297.0,-45.0,27.0,467.0,-106.0,-83.0,-1141.0,-91.0,2
1448,-12.0,-299.0,-48.0,45.0,478.0,-86.0,-88.0,-1149.0,-87.0,2
1449,-16.0,-301.0,-39.0,64.0,493.0,-70.0,-100.0,-1163.0,-91.0,2
1450,-17.0,-305.0,-39.0,82.0,509.0,-49.0,-97.0,-1180.0,-89.0,2
1451,-19.0,-304.0,-35.0,98.0,527.0,-29.0,-111.0,-1177.0,-66.0,2
1452,-15.0,-310.0,-48.0,123.0,514.0,32.0,-73.0,-1203.0,-66.0,2
1453,-18.0,-301.0,-21.0,146.0,525.0,107.0,-133.0,-1219.0,-31.0,2
1454,-33.0,-306.0,-11.0,165.0,586.0,67.0,-144.0,-1168.0,4.0,2
1455,-23.0,-301.0,-6.0,198.0,590.0,61.0,-127.0,-1155.0,34.0,2
1456,-16.0,-307.0,-19.0,232.0,575.0,103.0,-108.0,-1169.0,26.0,2
1457,-20.0,-295.0,-15.0,245.0,594.0,115.0,-123.0,-1141.0,21.0,2
1458,-21.0,-290.0,-17.0,251.0,611.0,114.0,-121.0,-1120.0,6.0,2
1459,-23.0,-289.0,-21.0,249.0,605.0,133.0,-113.0,-1123.0,-16.0,2
1460,-22.0,-285.0,-28.0,240.0,601.0,154.0,-113.0,-1116.0,-40.0,2
1461,-26.0,-291.0,-35.0,225.0,609.0,169.0,-129.0,-1113.0,-44.0,2
1462,-30.0,-289.0,-39.0,209.0,614.0,166.0,-143.0,-1114.0,-66.0,2
1463,-30.0,-289.0,-43.0,195.0,606.0,164.0,-143.0,-1131.0,-102.0,2
1464,-25.0,-289.0,-54.0,174.0,585.0,171.0,-132.0,-1137.0,-141.0,2
1465,-25.0,-293.0,-60.0,151.0,567.0,173.0,-133.0,-1132.0,-156.0,2
1466,-28.0,-294.0,-59.0,138.0,557.0,178.0,-140.0,-1130.0,-168.0,2
1467,-35.0,-301.0,-72.0,128.0,550.0,179.0,-164.0,-1167.0,-216.0,2
1468,-42.0,-305.0,-81.0,106.0,544.0,185.0,-178.0,-1201.0,-254.0,2
1469,-47.0,-318.0,-90.0,82.0,523.0,194.0,-215.0,-1211.0,-281.0,2
1470,-48.0,-322.0,-105.0,75.0,497.0,218.0,-222.0,-1232.0,-348.0,2
1471,-54.0,-323.0,-118.0,81.0,468.0,251.0,-257.0,-1247.0,-410.0,2
1472,-67.0,-325.0,-131.0,87.0,445.0,288.0,-299.0,-1261.0,-471.0,2
1473,-81.0,-332.0,-153.0,74.0,411.0,331.0,-360.0,-1269.0,-525.0,2
1474,-98.0,-328.0,-156.0,57.0,353.0,393.0,-409.0,-1271.0,-552.0,2
1475,-105.0,-328.0,-155.0,40.0,270.0,469.0,-421.0,-1279.0,-574.0,2
1476,-89.0,-318.0,-158.0,24.0,171.0,550.0,-385.0,-1252.0,-566.0,2
1477,-65.0,-303.0,-145.0,1.0,73.0,609.0,-291.0,-1189.0,-538.0,2
1478,-52.0,-290.0,-140.0,-35.0,-9.0,633.0,-221.0,-1135.0,-498.0,2
1479,-36.0,-273.0,-140.0,-70.0,-51.0,623.0,-175.0,-1069.0,-500.0,2
1480,-22.0,-253.0,-136.0,-94.0,-58.0,599.0,-131.0,-985.0,-493.0,2
1481,-12.0,-232.0,-136.0,-89.0,-35.0,553.0,-87.0,-905.0,-478.0,2
1482,4.0,-225.0,-139.0,-25.0,4.0,512.0,-27.0,-860.0,-486.0,2
1483,22.0,-213.0,-138.0,47.0,65.0,460.0,34.0,-821.0,-494.0,2
1484,37.0,-196.0,-131.0,126.0,119.0,405.0,111.0,-762.0,-481.0,2
1485,60.0,-199.0,-144.0,196.0,155.0,350.0,198.0,-765.0,-464.0,2
1486,78.0,-195.0,-143.0,235.0,203.0,284.0,279.0,-756.0,-492.0,2
1487,88.0,-195.0,-122.0,225.0,249.0,209.0,308.0,-770.0,-419.0,2
1488,106.0,-208.0,-107.0,226.0,292.0,140.0,373.0,-813.0,-353.0,2
1489,112.0,-222.0,-101.0,254.0,324.0,62.0,385.0,-862.0,-344.0,2
1490,105.0,-226.0,-101.0,286.0,361.0,-13.0,375.0,-889.0,-327.0,2
1491,101.0,-234.0,-94.0,306.0,392.0,-79.0,356.0,-907.0,-314.0,2
1492,94.0,-245.0,-88.0,315.0,417.0,-125.0,341.0,-937.0,-290.0,2
1493,91.0,-254.0,-76.0,314.0,442.0,-172.0,322.0,-972.0,-264.0,2
1494,86.0,-259.0,-88.0,312.0,459.0,-215.0,297.0,-1007.0,-259.0,2
1495,71.0,-260.0,-78.0,302.0,473.0,-257.0,255.0,-1015.0,-243.0,2
1496,53.0,-259.0,-63.0,291.0,472.0,-297.0,199.0,-1004.0,-167.0,2
1497,42.0,-264.0,-56.0,325.0,452.0,-311.0,128.0,-1019.0,-158.0,2
1498,28.0,-258.0,-75.0,385.0,416.0,-319.0,83.0,-1019.0,-237.0,2
1499,14.0,-253.0,-83.0,382.0,379.0,-328.0,43.0,-1006.0,-259.0,2
1500,3.0,-256.0,-87.0,335.0,328.0,-347.0,1.0,-1010.0,-280.0,2
1501,0.0,-253.0,-87.0,264.0,272.0,-360.0,-27.0,-977.0,-271.0,2
1502,-9.0,-249.0,-79.0,193.0,198.0,-378.0,-50.0,-969.0,-247.0,2
1503,-12.0,-256.0,-86.0,154.0,143.0,-404.0,-70.0,-998.0,-273.0,2
1504,-17.0,-246.0,-84.0,102.0,95.0,-454.0,-87.0,-962.0,-270.0,2
1505,-20.0,-243.0,-79.0,53.0,44.0,-496.0,-105.0,-943.0,-257.0,2
1506,-31.0,-237.0,-81.0,15.0,6.0,-531.0,-142.0,-926.0,-263.0,2
1507,-42.0,-235.0,-81.0,-18.0,-22.0,-541.0,-182.0,-916.0,-256.0,2
1508,-42.0,-237.0,-81.0,-44.0,-52.0,-535.0,-191.0,-905.0,-254.0,2
1509,-45.0,-229.0,-80.0,-60.0,-82.0,-521.0,-188.0,-892.0,-263.0,2
1510,-36.0,-231.0,-80.0,-72.0,-104.0,-514.0,-174.0,-892.0,-265.0,2
1511,-34.0,-223.0,-77.0,-89.0,-108.0,-513.0,-155.0,-878.0,-252.0,2
1512,-24.0,-226.0,-74.0,-99.0,-110.0,-513.0,-129.0,-871.0,-224.0,2
1513,-20.0,-223.0,-68.0,-87.0,-109.0,-513.0,-115.0,-858.0,-192.0,2
1514,-15.0,-221.0,-60.0,-54.0,-105.0,-514.0,-95.0,-855.0,-167.0,2
1515,-12.0,-218.0,-57.0,-2.0,-108.0,-506.0,-79.0,-837.0,-151.0,2
1516,-9.0,-214.0,-55.0,59.0,-112.0,-499.0,-57.0,-827.0,-159.0,2
1517,-6.0,-207.0,-57.0,116.0,-120.0,-489.0,-48.0,-796.0,-154.0,2
1518,-2.0,-198.0,-58.0,169.0,-131.0,-480.0,-23.0,-784.0,-154.0,2
1519,0.0,-198.0,-54.0,214.0,-148.0,-457.0,-16.0,-754.0,-142.0,2
1520,9.0,-194.0,-55.0,248.0,-170.0,-437.0,4.0,-755.0,-153.0,2
1521,15.0,-196.0,-59.0,259.0,-194.0,-420.0,17.0,-754.0,-157.0,2
1522,15.0,-189.0,-54.0,248.0,-221.0,-428.0,45.0,-738.0,-149.0,2
1523,33.0,-191.0,-56.0,220.0,-266.0,-399.0,95.0,-751.0,-144.0,2
1524,41.0,-194.0,-54.0,201.0,-295.0,-370.0,123.0,-760.0,-139.0,2
1525,44.0,-195.0,-53.0,179.0,-301.0,-352.0,138.0,-758.0,-142.0,2
1526,43.0,-194.0,-52.0,156.0,-303.0,-344.0,148.0,-750.0,-133.0,2
1527,48.0,-194.0,-56.0,128.0,-304.0,-333.0,160.0,-760.0,-137.0,2
1528,52.0,-196.0,-53.0,88.0,-299.0,-330.0,171.0,-772.0,-140.0,2
1529,52.0,-195.0,-54.0,41.0,-298.0,-324.0,183.0,-778.0,-136.0,2
1530,47.0,-199.0,-47.0,-7.0,-294.0,-325.0,134.0,-808.0,-139.0,2
1531,55.0,-198.0,-49.0,-48.0,-278.0,-353.0,176.0,-786.0,-115.0,2
1532,60.0,-202.0,-46.0,-73.0,-290.0,-321.0,207.0,-797.0,-108.0,2
1533,62.0,-202.0,-43.0,-95.0,-267.0,-286.0,199.0,-792.0,-88.0,2
1534,53.0,-203.0,-35.0,-92.0,-227.0,-265.0,186.0,-803.0,-68.0,2
1535,52.0,-213.0,-32.0,-73.0,-192.0,-234.0,177.0,-825.0,-62.0,2
1536,53.0,-213.0,-37.0,-50.0,-158.0,-202.0,172.0,-823.0,-57.0,2
1537,52.0,-216.0,-27.0,-21.0,-119.0,-159.0,174.0,-836.0,-47.0,2
1538,53.0,-218.0,-29.0,13.0,-80.0,-120.0,173.0,-844.0,-39.0,2
1539,50.0,-223.0,-31.0,44.0,-49.0,-77.0,161.0,-852.0,-45.0,2
1540,50.0,-219.0,-31.0,69.0,-23.0,-39.0,162.0,-853.0,-44.0,2
1541,44.0,-224.0,-34.0,84.0,-8.0,1.0,127.0,-884.0,-51.0,2
1542,40.0,-222.0,-33.0,89.0,24.0,-6.0,132.0,-847.0,-48.0,2
1543,50.0,-218.0,-35.0,84.0,5.0,50.0,174.0,-859.0,-65.0,2
1544,55.0,-224.0,-41.0,71.0,-2.0,113.0,185.0,-877.0,-75.0,2
1545,52.0,-221.0,-37.0,49.0,16.0,142.0,177.0,-876.0,-77.0,2
1546,46.0,-225.0,-36.0,27.0,29.0,166.0,167.0,-886.0,-72.0,2
1547,51.0,-231.0,-40.0,9.0,35.0,189.0,162.0,-898.0,-73.0,2
1548,51.0,-234.0,-32.0,-8.0,33.0,207.0,160.0,-893.0,-66.0,2
1549,48.0,-235.0,-33.0,-16.0,26.0,226.0,169.0,-905.0,-55.0,2
1550,52.0,-235.0,-31.0,-16.0,16.0,239.0,179.0,-914.0,-55.0,2
1551,54.0,-235.0,-34.0,-15.0,12.0,245.0,185.0,-914.0,-46.0,2
1552,50.0,-234.0,-27.0,-11.0,12.0,242.0,174.0,-919.0,-43.0,2
1553,51.0,-239.0,-30.0,3.0,7.0,244.0,164.0,-918.0,-39.0,2
1554,46.0,-233.0,-29.0,20.0,3.0,241.0,152.0,-914.0,-41.0,2
1555,39.0,-233.0,-32.0,33.0,-3.0,239.0,126.0,-905.0,-57.0,2
1556,35.0,-227.0,-19.0,34.0,6.0,203.0,111.0,-893.0,-58.0,2
1557,32.0,-229.0,-41.0,21.0,-14.0,174.0,94.0,-900.0,-97.0,2
1558,40.0,-234.0,-46.0,-4.0,-50.0,206.0,124.0,-918.0,-107.0,2
1559,41.0,-243.0,-50.0,-46.0,-46.0,219.0,116.0,-934.0,-123.0,2
1560,34.0,-247.0,-49.0,-95.0,-21.0,208.0,99.0,-953.0,-116.0,2
1561,23.0,-255.0,-45.0,-144.0,-4.0,187.0,70.0,-987.0,-106.0,2
1562,11.0,-260.0,-41.0,-187.0,1.0,172.0,23.0,-1026.0,-104.0,2
1563,8.0,-269.0,-43.0,-236.0,-16.0,176.0,6.0,-1052.0,-85.0,2
1564,13.0,-281.0,-36.0,-262.0,-42.0,179.0,20.0,-1094.0,-69.0,2
1565,10.0,-294.0,-31.0,-273.0,-69.0,173.0,13.0,-1119.0,-59.0,2
1566,11.0,-297.0,-30.0,-268.0,-90.0,168.0,8.0,-1141.0,-47.0,2
1567,9.0,-300.0,-24.0,-250.0,-110.0,158.0,4.0,-1152.0,-46.0,2
1568,8.0,-301.0,-29.0,-220.0,-130.0,145.0,-2.0,-1163.0,-44.0,2
1569,-3.0,-304.0,-45.0,-179.0,-138.0,108.0,-24.0,-1145.0,-29.0,2
1570,8.0,-296.0,-30.0,-139.0,-153.0,46.0,-14.0,-1139.0,-58.0,2
1571,15.0,-295.0,-37.0,-89.0,-204.0,73.0,29.0,-1143.0,-72.0,2
1572,22.0,-290.0,-35.0,-49.0,-219.0,80.0,48.0,-1124.0,-70.0,2
1573,19.0,-283.0,-37.0,-9.0,-209.0,61.0,49.0,-1098.0,-78.0,2
1574,25.0,-273.0,-39.0,12.0,-214.0,48.0,64.0,-1076.0,-74.0,2
1575,34.0,-273.0,-37.0,19.0,-225.0,31.0,108.0,-1056.0,-64.0,2
1576,48.0,-267.0,-35.0,16.0,-235.0,18.0,151.0,-1049.0,-52.0,2
1577,54.0,-260.0,-13.0,3.0,-237.0,-5.0,117.0,-1068.0,-70.0,2
1578,51.0,-262.0,-35.0,-24.0,-219.0,-77.0,185.0,-1040.0,-48.0,2
1579,70.0,-271.0,-40.0,-65.0,-243.0,-89.0,243.0,-1058.0,-72.0,2
1580,70.0,-274.0,-27.0,-120.0,-259.0,-84.0,244.0,-1076.0,-29.0,2
1581,66.0,-281.0,-20.0,-155.0,-259.0,-99.0,230.0,-1096.0,1.0,2
1582,63.0,-288.0,-16.0,-170.0,-260.0,-131.0,230.0,-1119.0,-2.0,2
1583,58.0,-296.0,-21.0,-191.0,-279.0,-147.0,196.0,-1148.0,-13.0,2
1584,48.0,-298.0,-26.0,-202.0,-283.0,-186.0,191.0,-1161.0,-13.0,2
1585,51.0,-311.0,-32.0,-198.0,-300.0,-220.0,167.0,-1184.0,-46.0,2
1586,59.0,-315.0,-38.0,-190.0,-317.0,-201.0,187.0,-1222.0,-62.0,2
1587,58.0,-325.0,-47.0,-178.0,-314.0,-196.0,198.0,-1270.0,-106.0,2
1588,57.0,-331.0,-53.0,-156.0,-287.0,-211.0,178.0,-1281.0,-103.0,2
1589,51.0,-335.0,-54.0,-119.0,-240.0,-250.0,159.0,-1295.0,-128.0,2
1590,57.0,-340.0,-56.0,-77.0,-208.0,-269.0,178.0,-1310.0,-150.0,2
1591,56.0,-336.0,-64.0,-30.0,-189.0,-255.0,189.0,-1289.0,-171.0,2
1592,59.0,-332.0,-76.0,25.0,-158.0,-233.0,193.0,-1287.0,-228.0,2
1593,65.0,-324.0,-100.0,79.0,-111.0,-235.0,200.0,-1272.0,-291.0,2
1594,59.0,-328.0,-107.0,91.0,-81.0,-243.0,216.0,-1265.0,-344.0,2
1595,57.0,-335.0,-125.0,74.0,-56.0,-271.0,201.0,-1283.0,-398.0,2
1596,71.0,-332.0,-121.0,35.0,-32.0,-331.0,225.0,-1270.0,-413.0,2
1597,71.0,-321.0,-121.0,-20.0,-30.0,-358.0,236.0,-1262.0,-412.0,2
1598,60.0,-314.0,-115.0,-86.0,-9.0,-367.0,207.0,-1240.0,-385.0,2
1599,43.0,-306.0,-102.0,-147.0,24.0,-374.0,141.0,-1202.0,-340.0,2
1600,31.0,-297.0,-89.0,-193.0,37.0,-371.0,102.0,-1161.0,-285.0,2
1601,29.0,-293.0,-87.0,-209.0,18.0,-360.0,84.0,-1123.0,-258.0,2
1602,30.0,-279.0,-79.0,-195.0,-18.0,-325.0,80.0,-1084.0,-249.0,2
1603,25.0,-265.0,-77.0,-134.0,-81.0,-301.0,71.0,-1026.0,-245.0,2
1604,20.0,-250.0,-82.0,-62.0,-138.0,-275.0,52.0,-953.0,-256.0,2
1605,4.0,-230.0,-87.0,8.0,-197.0,-253.0,-2.0,-890.0,-279.0,2
1606,-5.0,-213.0,-100.0,61.0,-255.0,-216.0,-35.0,-833.0,-319.0,2
1607,-13.0,-198.0,-108.0,87.0,-302.0,-181.0,-71.0,-792.0,-360.0,2
1608,-22.0,-192.0,-112.0,82.0,-339.0,-146.0,-112.0,-756.0,-377.0,2
1609,-31.0,-187.0,-117.0,59.0,-367.0,-119.0,-142.0,-737.0,-395.0,2
1610,-42.0,-188.0,-121.0,25.0,-394.0,-91.0,-178.0,-733.0,-411.0,2
1611,-49.0,-185.0,-128.0,-21.0,-414.0,-73.0,-217.0,-729.0,-448.0,2
1612,-62.0,-183.0,-153.0,-89.0,-433.0,-51.0,-247.0,-705.0,-483.0,2
1613,-62.0,-184.0,-146.0,-224.0,-450.0,-47.0,-267.0,-735.0,-524.0,2
1614,-74.0,-185.0,-137.0,-352.0,-470.0,-38.0,-313.0,-742.0,-489.0,2
1615,-78.0,-191.0,-119.0,-468.0,-492.0,-34.0,-334.0,-743.0,-418.0,2
1616,-65.0,-200.0,-89.0,-528.0,-514.0,-23.0,-277.0,-763.0,-340.0,2
1617,-78.0,-211.0,-86.0,-521.0,-530.0,-24.0,-327.0,-815.0,-287.0,2
1618,-65.0,-221.0,-88.0,-455.0,-524.0,-13.0,-281.0,-852.0,-290.0,2
1619,-48.0,-231.0,-92.0,-377.0,-516.0,9.0,-226.0,-892.0,-295.0,2
1620,-37.0,-237.0,-88.0,-304.0,-500.0,16.0,-177.0,-901.0,-287.0,2
1621,-23.0,-241.0,-87.0,-234.0,-473.0,17.0,-136.0,-926.0,-275.0,2
1622,-12.0,-246.0,-87.0,-168.0,-436.0,15.0,-99.0,-944.0,-279.0,2
1623,-8.0,-246.0,-83.0,-109.0,-383.0,15.0,-62.0,-944.0,-263.0,2
1624,-1.0,-245.0,-76.0,-41.0,-344.0,24.0,-35.0,-940.0,-235.0,2
1625,14.0,-250.0,-70.0,35.0,-305.0,42.0,16.0,-944.0,-199.0,2
1626,26.0,-249.0,-75.0,121.0,-256.0,68.0,60.0,-947.0,-242.0,2
1627,35.0,-246.0,-87.0,176.0,-192.0,89.0,99.0,-949.0,-282.0,2
1628,43.0,-244.0,-90.0,179.0,-126.0,117.0,120.0,-953.0,-286.0,2
1629,48.0,-242.0,-88.0,151.0,-75.0,165.0,150.0,-946.0,-275.0,2
1630,48.0,-246.0,-83.0,123.0,-36.0,223.0,157.0,-954.0,-258.0,2
1631,49.0,-245.0,-85.0,111.0,9.0,253.0,158.0,-953.0,-252.0,2
1632,49.0,-245.0,-82.0,106.0,44.0,281.0,162.0,-951.0,-258.0,2
1633,50.0,-247.0,-85.0,102.0,69.0,337.0,160.0,-971.0,-259.0,2
1634,51.0,-252.0,-82.0,87.0,103.0,358.0,159.0,-968.0,-265.0,2
1635,51.0,-253.0,-90.0,72.0,135.0,378.0,164.0,-991.0,-277.0,2
1636,45.0,-253.0,-87.0,48.0,161.0,402.0,147.0,-980.0,-277.0,2
1637,42.0,-254.0,-88.0,28.0,184.0,423.0,124.0,-971.0,-259.0,2
1638,34.0,-249.0,-88.0,10.0,204.0,440.0,110.0,-970.0,-263.0,2
1639,33.0,-245.0,-84.0,-8.0,222.0,455.0,94.0,-968.0,-262.0,2
1640,29.0,-243.0,-84.0,-28.0,239.0,466.0,69.0,-932.0,-251.0,2
1641,23.0,-241.0,-83.0,-42.0,252.0,487.0,52.0,-929.0,-255.0,2
1642,16.0,-235.0,-74.0,-56.0,271.0,490.0,26.0,-910.0,-239.0,2
1643,10.0,-229.0,-77.0,-58.0,288.0,481.0,12.0,-886.0,-225.0,2
1644,5.0,-222.0,-79.0,-44.0,294.0,465.0,-6.0,-855.0,-230.0,2
1645,-3.0,-214.0,-79.0,-33.0,299.0,452.0,-27.0,-845.0,-236.0,2
1646,-5.0,-211.0,-78.0,-28.0,324.0,430.0,-58.0,-831.0,-244.0,2
1647,-9.0,-208.0,-75.0,-34.0,351.0,415.0,-68.0,-816.0,-236.0,2
1648,-22.0,-206.0,-71.0,-47.0,379.0,398.0,-83.0,-815.0,-252.0,2
1649,-19.0,-208.0,-83.0,-63.0,392.0,405.0,-98.0,-809.0,-250.0,2
1650,-27.0,-205.0,-80.0,-80.0,414.0,407.0,-136.0,-804.0,-241.0,2
1651,-32.0,-198.0,-70.0,-93.0,451.0,381.0,-151.0,-786.0,-233.0,2
1652,-30.0,-197.0,-69.0,-99.0,459.0,363.0,-164.0,-763.0,-221.0,2
1653,-35.0,-196.0,-74.0,-105.0,471.0,368.0,-166.0,-760.0,-221.0,2
1654,-39.0,-193.0,-70.0,-123.0,490.0,370.0,-174.0,-749.0,-222.0,2
1655,-40.0,-194.0,-77.0,-148.0,509.0,377.0,-177.0,-764.0,-232.0,2
1656,-37.0,-197.0,-73.0,-181.0,521.0,376.0,-179.0,-773.0,-215.0,2
1657,-39.0,-199.0,-63.0,-206.0,526.0,375.0,-178.0,-774.0,-186.0,2
1658,-37.0,-203.0,-61.0,-213.0,520.0,366.0,-175.0,-788.0,-167.0,2
1659,-35.0,-207.0,-56.0,-207.0,514.0,358.0,-166.0,-801.0,-161.0,2
1660,-30.0,-218.0,-53.0,-190.0,491.0,374.0,-173.0,-820.0,-154.0,2
1661,-40.0,-215.0,-47.0,-176.0,498.0,366.0,-197.0,-817.0,-124.0,2
1662,-41.0,-207.0,-44.0,-151.0,491.0,307.0,-166.0,-810.0,-104.0,2
1663,-37.0,-211.0,-49.0,-111.0,416.0,257.0,-171.0,-823.0,-118.0,2
1664,-30.0,-219.0,-44.0,-88.0,398.0,227.0,-143.0,-841.0,-117.0,2
1665,-29.0,-218.0,-45.0,-70.0,386.0,195.0,-134.0,-849.0,-109.0,2
1666,-17.0,-223.0,-51.0,-50.0,354.0,199.0,-110.0,-872.0,-129.0,2
1667,-32.0,-226.0,-52.0,-44.0,356.0,165.0,-146.0,-881.0,-124.0,2
1668,-32.0,-230.0,-50.0,-38.0,355.0,90.0,-143.0,-881.0,-121.0,2
1669,-23.0,-232.0,-47.0,-31.0,331.0,51.0,-124.0,-885.0,-121.0,2
1670,-19.0,-233.0,-48.0,-26.0,307.0,30.0,-108.0,-894.0,-109.0,2
1671,-26.0,-231.0,-44.0,-16.0,303.0,2.0,-134.0,-897.0,-85.0,2
1672,-27.0,-236.0,-38.0,3.0,314.0,-49.0,-139.0,-883.0,-78.0,2
1673,-26.0,-232.0,-32.0,29.0,313.0,-81.0,-137.0,-882.0,-63.0,2
1674,-29.0,-230.0,-32.0,66.0,315.0,-89.0,-142.0,-884.0,-50.0,2
1675,-26.0,-228.0,-32.0,97.0,332.0,-102.0,-125.0,-895.0,-58.0,2
1676,-27.0,-228.0,-33.0,117.0,349.0,-139.0,-133.0,-874.0,-56.0,2
1677,-31.0,-222.0,-35.0,133.0,350.0,-155.0,-161.0,-864.0,-59.0,2
1678,-31.0,-222.0,-37.0,150.0,347.0,-164.0,-152.0,-873.0,-68.0,2
1679,-26.0,-224.0,-38.0,155.0,353.0,-162.0,-134.0,-876.0,-69.0,2
1680,-23.0,-225.0,-37.0,154.0,368.0,-165.0,-122.0,-876.0,-77.0,2
1681,-23.0,-230.0,-42.0,151.0,379.0,-168.0,-121.0,-883.0,-91.0,2
1682,-18.0,-231.0,-48.0,139.0,379.0,-158.0,-107.0,-895.0,-102.0,2
1683,-17.0,-235.0,-48.0,120.0,380.0,-130.0,-105.0,-906.0,-122.0,2
1684,-12.0,-233.0,-44.0,75.0,405.0,-166.0,-80.0,-907.0,-116.0,2
1685,-6.0,-240.0,-49.0,36.0,404.0,-177.0,-54.0,-927.0,-120.0,2
1686,-2.0,-244.0,-51.0,-5.0,403.0,-185.0,-28.0,-939.0,-126.0,2
1687,4.0,-248.0,-49.0,-46.0,409.0,-186.0,-9.0,-970.0,-122.0,2
1688,7.0,-251.0,-48.0,-83.0,416.0,-191.0,0.0,-980.0,-121.0,2
1689,10.0,-258.0,-46.0,-109.0,419.0,-193.0,4.0,-1004.0,-113.0,2
1690,13.0,-262.0,-45.0,-127.0,422.0,-194.0,14.0,-1021.0,-106.0,2
1691,9.0,-264.0,-46.0,-138.0,424.0,-195.0,14.0,-1037.0,-101.0,2
1692,11.0,-269.0,-45.0,-142.0,425.0,-197.0,10.0,-1041.0,-100.0,2
1693,6.0,-269.0,-46.0,-143.0,422.0,-198.0,-5.0,-1044.0,-102.0,2
1694,6.0,-270.0,-48.0,-142.0,416.0,-194.0,-7.0,-1051.0,-115.0,2
1695,1.0,-270.0,-48.0,-148.0,411.0,-190.0,-24.0,-1046.0,-132.0,2
1696,-4.0,-269.0,-50.0,-155.0,404.0,-183.0,-38.0,-1050.0,-131.0,2
1697,-11.0,-268.0,-55.0,-156.0,400.0,-172.0,-67.0,-1057.0,-137.0,2
1698,-12.0,-271.0,-56.0,-156.0,397.0,-157.0,-69.0,-1062.0,-136.0,2
1699,-13.0,-275.0,-56.0,-152.0,395.0,-145.0,-96.0,-1071.0,-144.0,2
1700,-12.0,-298.0,-68.0,-144.0,376.0,-91.0,-105.0,-1089.0,-151.0,2
1701,-29.0,-278.0,-61.0,-139.0,383.0,-49.0,-159.0,-1101.0,-159.0,2
1702,-40.0,-282.0,-52.0,-154.0,427.0,-76.0,-181.0,-1097.0,-144.0,2
1703,-39.0,-287.0,-49.0,-159.0,426.0,-71.0,-191.0,-1119.0,-128.0,2
1704,-40.0,-295.0,-43.0,-156.0,419.0,-53.0,-189.0,-1132.0,-86.0,2
1705,-47.0,-299.0,-39.0,-135.0,423.0,-38.0,-206.0,-1150.0,-63.0,2
1706,-38.0,-303.0,-25.0,-106.0,426.0,-3.0,-192.0,-1168.0,-42.0,2
1707,-50.0,-306.0,-17.0,-68.0,429.0,61.0,-234.0,-1173.0,-1.0,2
1708,-49.0,-304.0,-14.0,-28.0,460.0,53.0,-237.0,-1164.0,28.0,2
1709,-50.0,-302.0,-7.0,19.0,461.0,50.0,-233.0,-1163.0,32.0,2
1710,-43.0,-305.0,-11.0,60.0,443.0,77.0,-215.0,-1174.0,27.0,2
1711,-36.0,-303.0,-15.0,85.0,442.0,101.0,-171.0,-1172.0,12.0,2
1712,-37.0,-305.0,-28.0,97.0,446.0,113.0,-172.0,-1188.0,-21.0,2
1713,-29.0,-307.0,-29.0,91.0,454.0,99.0,-157.0,-1174.0,-35.0,2
1714,-24.0,-306.0,-32.0,85.0,453.0,111.0,-128.0,-1175.0,-35.0,2
1715,-17.0,-300.0,-33.0,94.0,454.0,127.0,-107.0,-1166.0,-48.0,2
1716,-10.0,-303.0,-43.0,107.0,450.0,159.0,-65.0,-1163.0,-81.0,2
1717,-11.0,-303.0,-43.0,112.0,450.0,193.0,-81.0,-1152.0,-100.0,2
1718,-12.0,-297.0,-51.0,107.0,466.0,192.0,-90.0,-1172.0,-114.0,2
1719,-14.0,-300.0,-46.0,94.0,464.0,193.0,-101.0,-1154.0,-125.0,2
1720,-23.0,-302.0,-48.0,78.0,450.0,210.0,-106.0,-1160.0,-126.0,2
1721,-21.0,-297.0,-49.0,80.0,436.0,208.0,-116.0,-1147.0,-129.0,2
1722,-24.0,-293.0,-55.0,98.0,421.0,202.0,-121.0,-1137.0,-147.0,2
1723,-25.0,-291.0,-62.0,120.0,412.0,198.0,-127.0,-1121.0,-179.0,2
1724,-27.0,-286.0,-74.0,152.0,407.0,204.0,-130.0,-1104.0,-243.0,2
1725,-27.0,-282.0,-95.0,165.0,412.0,211.0,-138.0,-1105.0,-299.0,2
1726,-28.0,-280.0,-108.0,160.0,422.0,229.0,-156.0,-1108.0,-365.0,2
1727,-40.0,-285.0,-120.0,145.0,434.0,246.0,-183.0,-1113.0,-406.0,2
1728,-51.0,-290.0,-131.0,132.0,432.0,272.0,-227.0,-1128.0,-446.0,2
1729,-69.0,-291.0,-142.0,120.0,405.0,298.0,-278.0,-1133.0,-492.0,2
1730,-77.0,-292.0,-149.0,117.0,348.0,335.0,-310.0,-1138.0,-530.0,2
1731,-79.0,-293.0,-151.0,120.0,274.0,372.0,-330.0,-1156.0,-551.0,2
1732,-76.0,-300.0,-163.0,118.0,193.0,422.0,-325.0,-1154.0,-573.0,2
1733,-61.0,-287.0,-160.0,102.0,105.0,477.0,-255.0,-1122.0,-576.0,2
1734,-43.0,-270.0,-160.0,71.0,22.0,516.0,-188.0,-1067.0,-568.0,2
1735,-17.0,-259.0,-158.0,38.0,-3.0,536.0,-105.0,-1016.0,-572.0,2
1736,-3.0,-244.0,-159.0,3.0,3.0,537.0,-54.0,-964.0,-571.0,2
1737,9.0,-233.0,-159.0,-31.0,30.0,521.0,8.0,-917.0,-568.0,2
1738,29.0,-214.0,-152.0,-68.0,60.0,497.0,65.0,-875.0,-575.0,2
1739,45.0,-201.0,-143.0,-111.0,94.0,465.0,132.0,-807.0,-515.0,2
1740,54.0,-199.0,-114.0,-107.0,114.0,436.0,187.0,-749.0,-385.0,2
1741,67.0,-199.0,-110.0,-19.0,138.0,410.0,238.0,-776.0,-380.0,2
1742,86.0,-210.0,-124.0,79.0,174.0,383.0,293.0,-814.0,-429.0,2
1743,100.0,-215.0,-124.0,131.0,207.0,326.0,342.0,-850.0,-426.0,2
1744,104.0,-233.0,-120.0,142.0,241.0,263.0,364.0,-908.0,-405.0,2
1745,102.0,-247.0,-113.0,138.0,271.0,181.0,358.0,-965.0,-387.0,2
1746,87.0,-258.0,-112.0,131.0,301.0,100.0,305.0,-1006.0,-376.0,2
1747,77.0,-261.0,-107.0,114.0,322.0,28.0,257.0,-1029.0,-358.0,2
1748,64.0,-267.0,-98.0,91.0,328.0,-33.0,220.0,-1043.0,-327.0,2
1749,55.0,-268.0,-90.0,68.0,314.0,-88.0,186.0,-1049.0,-293.0,2
1750,48.0,-267.0,-83.0,49.0,292.0,-140.0,152.0,-1047.0,-268.0,2
1751,37.0,-275.0,-21.0,46.0,277.0,-197.0,114.0,-1027.0,-49.0,2
1752,18.0,-281.0,-53.0,185.0,268.0,-248.0,54.0,-1079.0,-100.0,2
1753,6.0,-273.0,-77.0,351.0,247.0,-288.0,10.0,-1070.0,-222.0,2
1754,0.0,-271.0,-77.0,414.0,202.0,-315.0,-21.0,-1049.0,-256.0,2
1755,-7.0,-263.0,-88.0,409.0,152.0,-353.0,-49.0,-1035.0,-274.0,2
1756,-12.0,-257.0,-90.0,389.0,93.0,-393.0,-72.0,-1009.0,-301.0,2
1757,-17.0,-250.0,-93.0,357.0,29.0,-432.0,-94.0,-968.0,-297.0,2
1758,-25.0,-249.0,-102.0,321.0,-40.0,-477.0,-125.0,-961.0,-328.0,2
1759,-29.0,-242.0,-103.0,264.0,-103.0,-531.0,-132.0,-932.0,-326.0,2
1760,-28.0,-233.0,-98.0,197.0,-159.0,-596.0,-134.0,-909.0,-323.0,2
1761,-32.0,-230.0,-99.0,136.0,-225.0,-596.0,-145.0,-903.0,-322.0,2
1762,-47.0,-228.0,-101.0,69.0,-256.0,-589.0,-198.0,-884.0,-322.0,2
1763,-47.0,-224.0,-96.0,-1.0,-271.0,-582.0,-209.0,-885.0,-310.0,2
1764,-34.0,-227.0,-95.0,-73.0,-320.0,-547.0,-174.0,-885.0,-301.0,2
1765,-27.0,-224.0,-88.0,-121.0,-346.0,-518.0,-140.0,-874.0,-281.0,2
1766,-26.0,-220.0,-78.0,-146.0,-346.0,-513.0,-128.0,-864.0,-252.0,2
1767,-23.0,-222.0,-71.0,-140.0,-346.0,-517.0,-110.0,-852.0,-216.0,2
1768,-19.0,-218.0,-68.0,-110.0,-356.0,-500.0,-98.0,-847.0,-203.0,2
1769,-14.0,-218.0,-60.0,-64.0,-360.0,-497.0,-99.0,-837.0,-169.0,2
1770,-17.0,-213.0,-57.0,-5.0,-372.0,-515.0,-78.0,-806.0,-141.0,2
1771,-11.0,-208.0,-54.0,70.0,-409.0,-513.0,-60.0,-794.0,-139.0,2
1772,-9.0,-199.0,-54.0,150.0,-450.0,-505.0,-49.0,-768.0,-143.0,2
1773,-2.0,-194.0,-54.0,223.0,-477.0,-499.0,-30.0,-742.0,-147.0,2
1774,-1.0,-182.0,-59.0,272.0,-517.0,-495.0,-23.0,-721.0,-168.0,2
1775,5.0,-185.0,-74.0,291.0,-567.0,-474.0,-1.0,-729.0,-214.0,2
1776,12.0,-182.0,-73.0,271.0,-609.0,-453.0,18.0,-713.0,-212.0,2
1777,14.0,-183.0,-71.0,243.0,-632.0,-442.0,43.0,-710.0,-209.0,2
1778,22.0,-182.0,-72.0,217.0,-654.0,-439.0,67.0,-714.0,-212.0,2
1779,25.0,-182.0,-73.0,185.0,-679.0,-435.0,81.0,-721.0,-209.0,2
1780,34.0,-188.0,-74.0,143.0,-699.0,-433.0,101.0,-745.0,-221.0,2
1781,29.0,-207.0,-83.0,81.0,-718.0,-424.0,96.0,-784.0,-234.0,2
1782,42.0,-194.0,-70.0,8.0,-713.0,-469.0,129.0,-761.0,-211.0,2
1783,56.0,-195.0,-65.0,-48.0,-750.0,-438.0,183.0,-781.0,-195.0,2
1784,54.0,-204.0,-70.0,-94.0,-747.0,-409.0,190.0,-803.0,-209.0,2
1785,54.0,-206.0,-67.0,-152.0,-720.0,-399.0,179.0,-810.0,-205.0,2
1786,53.0,-207.0,-69.0,-189.0,-699.0,-388.0,177.0,-825.0,-195.0,2
1787,52.0,-214.0,-67.0,-215.0,-681.0,-369.0,171.0,-841.0,-184.0,2
1788,51.0,-220.0,-62.0,-230.0,-662.0,-352.0,168.0,-860.0,-165.0,2
1789,50.0,-225.0,-53.0,-229.0,-635.0,-325.0,167.0,-877.0,-140.0,2
1790,52.0,-231.0,-52.0,-206.0,-606.0,-294.0,160.0,-892.0,-121.0,2
1791,50.0,-236.0,-49.0,-165.0,-574.0,-257.0,160.0,-900.0,-106.0,2
1792,51.0,-237.0,-41.0,-110.0,-539.0,-219.0,153.0,-904.0,-92.0,2
1793,48.0,-234.0,-47.0,-52.0,-502.0,-174.0,158.0,-912.0,-88.0,2
1794,52.0,-236.0,-40.0,0.0,-466.0,-129.0,160.0,-919.0,-99.0,2
1795,54.0,-239.0,-42.0,56.0,-440.0,-91.0,165.0,-918.0,-88.0,2
1796,52.0,-239.0,-45.0,101.0,-417.0,-62.0,157.0,-911.0,-97.0,2
1797,51.0,-234.0,-45.0,137.0,-397.0,-22.0,164.0,-909.0,-100.0,2
1798,48.0,-235.0,-55.0,163.0,-381.0,9.0,167.0,-916.0,-123.0,2
1799,46.0,-234.0,-54.0,167.0,-360.0,20.0,166.0,-908.0,-119.0,2
1800,56.0,-232.0,-52.0,160.0,-359.0,23.0,186.0,-896.0,-116.0,2
1801,61.0,-231.0,-46.0,152.0,-373.0,83.0,200.0,-909.0,-115.0,2
1802,61.0,-234.0,-49.0,139.0,-353.0,105.0,206.0,-912.0,-120.0,2
1803,58.0,-232.0,-44.0,123.0,-333.0,124.0,196.0,-909.0,-104.0,2
1804,60.0,-233.0,-44.0,111.0,-317.0,135.0,206.0,-908.0,-93.0,2
1805,57.0,-231.0,-40.0,108.0,-302.0,150.0,202.0,-908.0,-81.0,2
1806,57.0,-231.0,-36.0,112.0,-291.0,161.0,198.0,-898.0,-80.0,2
1807,53.0,-230.0,-44.0,115.0,-279.0,172.0,197.0,-889.0,-79.0,2
1808,51.0,-226.0,-43.0,113.0,-269.0,176.0,183.0,-877.0,-88.0,2
1809,52.0,-224.0,-43.0,104.0,-257.0,184.0,163.0,-878.0,-102.0,2
1810,46.0,-222.0,-48.0,85.0,-244.0,186.0,147.0,-878.0,-120.0,2
1811,42.0,-224.0,-55.0,53.0,-229.0,189.0,129.0,-878.0,-127.0,2
1812,40.0,-226.0,-55.0,12.0,-214.0,188.0,115.0,-884.0,-140.0,2
1813,41.0,-235.0,-63.0,-32.0,-198.0,188.0,114.0,-909.0,-156.0,2
1814,29.0,-232.0,-50.0,-83.0,-180.0,182.0,96.0,-906.0,-127.0,2
1815,25.0,-239.0,-51.0,-107.0,-166.0,185.0,63.0,-917.0,-112.0,2
1816,20.0,-244.0,-46.0,-110.0,-160.0,189.0,51.0,-942.0,-113.0,2
1817,19.0,-248.0,-47.0,-111.0,-155.0,199.0,55.0,-964.0,-107.0,2
1818,16.0,-253.0,-44.0,-118.0,-160.0,201.0,36.0,-976.0,-89.0,2
1819,13.0,-256.0,-38.0,-117.0,-172.0,203.0,18.0,-981.0,-74.0,2
1820,8.0,-258.0,-40.0,-107.0,-184.0,203.0,6.0,-1003.0,-65.0,2
1821,2.0,-258.0,-24.0,-100.0,-189.0,186.0,-60.0,-1014.0,-54.0,2
1822,7.0,-263.0,-41.0,-96.0,-196.0,120.0,7.0,-1022.0,-77.0,2
1823,25.0,-271.0,-45.0,-76.0,-252.0,164.0,57.0,-1043.0,-100.0,2
1824,28.0,-270.0,-46.0,-60.0,-261.0,194.0,71.0,-1052.0,-106.0,2
1825,25.0,-273.0,-47.0,-41.0,-234.0,186.0,68.0,-1057.0,-114.0,2
1826,25.0,-272.0,-49.0,-26.0,-219.0,165.0,64.0,-1056.0,-125.0,2
1827,20.0,-270.0,-47.0,-15.0,-215.0,146.0,55.0,-1052.0,-118.0,2
1828,21.0,-268.0,-51.0,-4.0,-220.0,129.0,54.0,-1047.0,-124.0,2
1829,22.0,-263.0,-47.0,-1.0,-230.0,115.0,57.0,-1032.0,-106.0,2
1830,25.0,-264.0,-41.0,-5.0,-241.0,103.0,70.0,-1041.0,-92.0,2
1831,31.0,-265.0,-39.0,-15.0,-249.0,94.0,81.0,-1040.0,-71.0,2
1832,37.0,-269.0,-33.0,-27.0,-254.0,84.0,102.0,-1050.0,-52.0,2
1833,37.0,-268.0,-25.0,-46.0,-254.0,76.0,112.0,-1050.0,-25.0,2
1834,39.0,-268.0,-18.0,-61.0,-253.0,65.0,115.0,-1083.0,14.0,2
1835,30.0,-270.0,4.0,-68.0,-225.0,-12.0,86.0,-1063.0,41.0,2
1836,51.0,-278.0,-22.0,-66.0,-254.0,-35.0,171.0,-1080.0,19.0,2
1837,46.0,-285.0,-13.0,-62.0,-288.0,7.0,142.0,-1094.0,23.0,2
1838,34.0,-286.0,-19.0,-63.0,-285.0,15.0,112.0,-1118.0,8.0,2
1839,29.0,-293.0,-19.0,-73.0,-285.0,1.0,85.0,-1133.0,1.0,2
1840,20.0,-297.0,-14.0,-75.0,-307.0,-18.0,56.0,-1131.0,26.0,2
1841,14.0,-303.0,-19.0,-49.0,-333.0,-46.0,16.0,-1152.0,9.0,2
1842,13.0,-303.0,-32.0,-28.0,-356.0,-119.0,35.0,-1160.0,-36.0,2
1843,26.0,-308.0,-37.0,-4.0,-404.0,-126.0,63.0,-1190.0,-58.0,2
1844,35.0,-314.0,-44.0,12.0,-431.0,-108.0,88.0,-1204.0,-72.0,2
1845,31.0,-317.0,-40.0,31.0,-412.0,-122.0,91.0,-1217.0,-79.0,2
1846,28.0,-317.0,-42.0,50.0,-381.0,-156.0,82.0,-1222.0,-87.0,2
1847,33.0,-317.0,-46.0,68.0,-367.0,-174.0,96.0,-1213.0,-111.0,2
1848,39.0,-316.0,-54.0,83.0,-363.0,-156.0,123.0,-1213.0,-143.0,2
1849,44.0,-310.0,-63.0,91.0,-354.0,-146.0,123.0,-1195.0,-184.0,2
1850,40.0,-299.0,-77.0,103.0,-329.0,-154.0,119.0,-1145.0,-242.0,2
1851,44.0,-292.0,-103.0,115.0,-305.0,-182.0,129.0,-1146.0,-330.0,2
1852,52.0,-293.0,-123.0,88.0,-289.0,-201.0,168.0,-1165.0,-404.0,2
1853,63.0,-310.0,-134.0,20.0,-277.0,-236.0,207.0,-1210.0,-454.0,2
1854,68.0,-326.0,-119.0,-69.0,-258.0,-295.0,179.0,-1320.0,-484.0,2
1855,64.0,-327.0,-125.0,-179.0,-209.0,-420.0,219.0,-1298.0,-425.0,2
1856,67.0,-338.0,-115.0,-238.0,-189.0,-475.0,236.0,-1337.0,-385.0,2
1857,56.0,-342.0,-96.0,-270.0,-148.0,-495.0,181.0,-1347.0,-317.0,2
1858,42.0,-339.0,-77.0,-274.0,-101.0,-516.0,127.0,-1326.0,-256.0,2
1859,25.0,-331.0,-72.0,-245.0,-89.0,-520.0,78.0,-1277.0,-220.0,2
1860,12.0,-319.0,-59.0,-195.0,-106.0,-501.0,6.0,-1217.0,-178.0,2
1861,8.0,-299.0,-70.0,-127.0,-133.0,-503.0,23.0,-1153.0,-192.0,2
1862,12.0,-278.0,-78.0,-39.0,-196.0,-423.0,13.0,-1077.0,-224.0,2
1863,8.0,-257.0,-83.0,49.0,-240.0,-349.0,5.0,-985.0,-254.0,2
1864,4.0,-232.0,-97.0,116.0,-276.0,-281.0,-15.0,-884.0,-309.0,2
1865,-4.0,-207.0,-108.0,152.0,-323.0,-239.0,-32.0,-809.0,-347.0,2
1866,-12.0,-188.0,-114.0,145.0,-368.0,-198.0,-56.0,-751.0,-388.0,2
1867,-18.0,-176.0,-120.0,114.0,-420.0,-165.0,-94.0,-710.0,-395.0,2
1868,-26.0,-172.0,-118.0,73.0,-473.0,-132.0,-108.0,-685.0,-409.0,2
1869,-31.0,-166.0,-128.0,21.0,-528.0,-111.0,-131.0,-670.0,-431.0,2
1870,-35.0,-170.0,-166.0,-53.0,-589.0,-93.0,-127.0,-659.0,-502.0,2
1871,-37.0,-161.0,-151.0,-182.0,-629.0,-92.0,-166.0,-645.0,-515.0,2
1872,-45.0,-160.0,-153.0,-338.0,-667.0,-96.0,-196.0,-648.0,-525.0,2
1873,-51.0,-163.0,-140.0,-504.0,-702.0,-107.0,-218.0,-662.0,-482.0,2
1874,-57.0,-171.0,-118.0,-639.0,-737.0,-118.0,-236.0,-660.0,-400.0,2
1875,-60.0,-187.0,-103.0,-707.0,-771.0,-127.0,-256.0,-711.0,-347.0,2
1876,-61.0,-198.0,-98.0,-694.0,-788.0,-127.0,-274.0,-757.0,-321.0,2
1877,-56.0,-211.0,-91.0,-656.0,-791.0,-125.0,-256.0,-801.0,-268.0,2
1878,-66.0,-221.0,-91.0,-593.0,-775.0,-117.0,-285.0,-851.0,-286.0,2
1879,-59.0,-230.0,-92.0,-514.0,-756.0,-99.0,-256.0,-885.0,-284.0,2
1880,-47.0,-238.0,-89.0,-424.0,-740.0,-79.0,-216.0,-905.0,-283.0,2
1881,-37.0,-239.0,-87.0,-327.0,-715.0,-66.0,-174.0,-922.0,-282.0,2
1882,-21.0,-249.0,-85.0,-228.0,-677.0,-44.0,-136.0,-933.0,-262.0,2
1883,-15.0,-251.0,-81.0,-117.0,-618.0,-24.0,-109.0,-951.0,-242.0,2
1884,-9.0,-250.0,-89.0,4.0,-552.0,13.0,-80.0,-962.0,-276.0,2
1885,1.0,-251.0,-97.0,98.0,-475.0,60.0,-47.0,-967.0,-317.0,2
1886,4.0,-246.0,-96.0,123.0,-401.0,96.0,-17.0,-949.0,-306.0,2
1887,12.0,-243.0,-92.0,130.0,-332.0,121.0,11.0,-939.0,-290.0,2
