,acc1_x,acc1_y,acc1_z,gyro_x,gyro_y,gyro_z,acc2_x,acc2_y,acc2_z,label
0,-50.0,-252.0,11.0,-64.0,-327.0,67.0,-178.0,-989.0,17.0,2
1,-52.0,-253.0,10.0,-54.0,-332.0,72.0,-181.0,-978.0,8.0,2
2,-51.0,-254.0,12.0,-52.0,-345.0,76.0,-164.0,-980.0,15.0,2
3,-50.0,-252.0,16.0,-47.0,-359.0,78.0,-166.0,-972.0,15.0,2
4,-54.0,-251.0,13.0,-44.0,-377.0,82.0,-159.0,-978.0,19.0,2
5,-48.0,-258.0,11.0,-45.0,-397.0,86.0,-158.0,-980.0,22.0,2
6,-50.0,-252.0,11.0,-51.0,-413.0,87.0,-159.0,-980.0,20.0,2
7,-44.0,-252.0,11.0,-58.0,-423.0,91.0,-147.0,-978.0,22.0,2
8,-45.0,-249.0,15.0,-67.0,-423.0,96.0,-136.0,-967.0,22.0,2
9,-44.0,-249.0,14.0,-79.0,-419.0,99.0,-140.0,-968.0,22.0,2
10,-42.0,-252.0,12.0,-92.0,-418.0,100.0,-142.0,-971.0,23.0,2
11,-45.0,-251.0,10.0,-107.0,-416.0,103.0,-135.0,-975.0,18.0,2
12,-45.0,-250.0,15.0,-113.0,-414.0,105.0,-141.0,-976.0,17.0,2
13,-44.0,-250.0,13.0,-111.0,-411.0,107.0,-144.0,-976.0,14.0,2
14,-45.0,-250.0,12.0,-105.0,-415.0,107.0,-143.0,-975.0,6.0,2
15,-45.0,-258.0,19.0,-101.0,-422.0,105.0,-139.0,-989.0,10.0,2
16,-44.0,-254.0,14.0,-96.0,-434.0,102.0,-136.0,-990.0,17.0,2
17,-43.0,-250.0,14.0,-92.0,-439.0,101.0,-130.0,-991.0,18.0,2
18,-40.0,-257.0,15.0,-94.0,-444.0,100.0,-137.0,-986.0,25.0,2
19,-40.0,-256.0,19.0,-97.0,-444.0,100.0,-130.0,-992.0,26.0,2
20,-40.0,-254.0,16.0,-104.0,-445.0,100.0,-119.0,-983.0,33.0,2
21,-39.0,-251.0,18.0,-109.0,-439.0,102.0,-114.0,-985.0,28.0,2
22,-34.0,-251.0,15.0,-113.0,-429.0,106.0,-107.0,-980.0,28.0,2
23,-31.0,-254.0,21.0,-113.0,-420.0,107.0,-99.0,-984.0,39.0,2
24,-29.0,-253.0,19.0,-107.0,-412.0,107.0,-86.0,-985.0,44.0,2
25,-28.0,-253.0,20.0,-99.0,-405.0,107.0,-83.0,-980.0,47.0,2
26,-28.0,-251.0,20.0,-89.0,-395.0,106.0,-77.0,-975.0,47.0,2
27,-26.0,-249.0,20.0,-80.0,-383.0,103.0,-79.0,-978.0,43.0,2
28,-28.0,-251.0,19.0,-76.0,-370.0,98.0,-77.0,-968.0,45.0,2
29,-29.0,-250.0,23.0,-79.0,-359.0,91.0,-77.0,-965.0,45.0,2
30,-27.0,-248.0,21.0,-82.0,-352.0,84.0,-84.0,-971.0,45.0,2
31,-27.0,-250.0,24.0,-85.0,-348.0,75.0,-82.0,-968.0,51.0,2
32,-31.0,-249.0,23.0,-85.0,-341.0,67.0,-91.0,-954.0,61.0,2
33,-33.0,-247.0,23.0,-82.0,-338.0,56.0,-100.0,-940.0,57.0,2
34,-37.0,-244.0,21.0,-78.0,-336.0,49.0,-101.0,-940.0,56.0,2
35,-37.0,-242.0,23.0,-79.0,-338.0,37.0,-111.0,-932.0,50.0,2
36,-43.0,-239.0,23.0,-81.0,-340.0,27.0,-130.0,-931.0,38.0,2
37,-41.0,-241.0,13.0,-86.0,-343.0,19.0,-150.0,-932.0,37.0,2
38,-48.0,-239.0,18.0,-92.0,-350.0,10.0,-158.0,-929.0,29.0,2
39,-50.0,-245.0,14.0,-96.0,-359.0,5.0,-170.0,-938.0,23.0,2
40,-52.0,-247.0,12.0,-106.0,-371.0,-2.0,-187.0,-947.0,15.0,2
41,-57.0,-247.0,10.0,-119.0,-375.0,-6.0,-188.0,-951.0,9.0,2
42,-62.0,-241.0,9.0,-131.0,-383.0,-9.0,-204.0,-952.0,5.0,2
43,-61.0,-248.0,10.0,-145.0,-393.0,-9.0,-205.0,-964.0,4.0,2
44,-62.0,-250.0,15.0,-152.0,-404.0,-9.0,-211.0,-966.0,15.0,2
45,-62.0,-253.0,16.0,-152.0,-415.0,-7.0,-212.0,-977.0,16.0,2
46,-63.0,-253.0,16.0,-149.0,-426.0,-1.0,-209.0,-979.0,23.0,2
47,-60.0,-254.0,12.0,-145.0,-436.0,3.0,-213.0,-975.0,20.0,2
48,-63.0,-250.0,12.0,-143.0,-444.0,7.0,-217.0,-974.0,24.0,2
49,-61.0,-252.0,18.0,-143.0,-457.0,12.0,-206.0,-974.0,24.0,2
50,-61.0,-251.0,12.0,-141.0,-471.0,13.0,-207.0,-969.0,26.0,2
51,-59.0,-249.0,13.0,-138.0,-482.0,13.0,-205.0,-970.0,24.0,2
52,-58.0,-249.0,15.0,-132.0,-493.0,12.0,-203.0,-968.0,23.0,2
53,-57.0,-248.0,15.0,-128.0,-500.0,9.0,-196.0,-962.0,21.0,2
54,-59.0,-247.0,17.0,-127.0,-507.0,8.0,-195.0,-954.0,21.0,2
55,-56.0,-244.0,17.0,-126.0,-512.0,6.0,-180.0,-949.0,21.0,2
56,-53.0,-245.0,15.0,-129.0,-517.0,4.0,-169.0,-954.0,25.0,2
57,-55.0,-248.0,15.0,-133.0,-519.0,2.0,-171.0,-953.0,24.0,2
58,-54.0,-248.0,14.0,-139.0,-519.0,1.0,-177.0,-966.0,22.0,2
59,-55.0,-252.0,18.0,-143.0,-519.0,-3.0,-175.0,-975.0,29.0,2
60,-52.0,-253.0,19.0,-142.0,-524.0,-5.0,-159.0,-974.0,44.0,2
61,-45.0,-253.0,26.0,-132.0,-528.0,-6.0,-151.0,-976.0,50.0,2
62,-43.0,-251.0,20.0,-121.0,-524.0,-7.0,-148.0,-980.0,53.0,2
63,-44.0,-252.0,25.0,-115.0,-516.0,-10.0,-148.0,-980.0,58.0,2
64,-44.0,-250.0,24.0,-116.0,-507.0,-10.0,-148.0,-974.0,57.0,2
65,-51.0,-254.0,26.0,-117.0,-503.0,-14.0,-155.0,-976.0,52.0,2
66,-46.0,-250.0,25.0,-117.0,-500.0,-15.0,-156.0,-977.0,51.0,2
67,-48.0,-250.0,23.0,-114.0,-498.0,-17.0,-152.0,-979.0,52.0,2
68,-49.0,-253.0,24.0,-107.0,-494.0,-19.0,-162.0,-981.0,50.0,2
69,-46.0,-254.0,25.0,-98.0,-493.0,-20.0,-161.0,-982.0,58.0,2
70,-46.0,-254.0,26.0,-86.0,-493.0,-21.0,-156.0,-980.0,59.0,2
71,-46.0,-252.0,27.0,-73.0,-493.0,-24.0,-146.0,-984.0,59.0,2
72,-48.0,-251.0,21.0,-66.0,-487.0,-27.0,-141.0,-980.0,53.0,2
73,-46.0,-251.0,23.0,-64.0,-476.0,-31.0,-145.0,-975.0,49.0,2
74,-45.0,-253.0,24.0,-68.0,-464.0,-30.0,-146.0,-992.0,44.0,2
75,-48.0,-250.0,19.0,-72.0,-457.0,-33.0,-147.0,-978.0,34.0,2
76,-50.0,-251.0,14.0,-75.0,-454.0,-34.0,-156.0,-975.0,32.0,2
77,-47.0,-252.0,12.0,-77.0,-453.0,-37.0,-162.0,-974.0,21.0,2
78,-51.0,-253.0,11.0,-78.0,-454.0,-41.0,-155.0,-980.0,16.0,2
79,-52.0,-251.0,15.0,-77.0,-453.0,-43.0,-162.0,-977.0,16.0,2
80,-51.0,-255.0,14.0,-74.0,-453.0,-44.0,-170.0,-983.0,18.0,2
81,-50.0,-255.0,14.0,-67.0,-451.0,-43.0,-170.0,-985.0,16.0,2
82,-49.0,-257.0,8.0,-66.0,-450.0,-40.0,-166.0,-997.0,10.0,2
83,-49.0,-256.0,3.0,-73.0,-446.0,-36.0,-155.0,-1010.0,-4.0,2
84,-47.0,-257.0,6.0,-81.0,-434.0,-32.0,-147.0,-1007.0,-4.0,2
85,-48.0,-258.0,13.0,-81.0,-418.0,-27.0,-148.0,-1006.0,3.0,2
86,-46.0,-257.0,13.0,-74.0,-401.0,-21.0,-154.0,-994.0,26.0,2
87,-46.0,-256.0,23.0,-64.0,-390.0,-14.0,-157.0,-988.0,42.0,2
88,-46.0,-255.0,21.0,-55.0,-381.0,-7.0,-140.0,-993.0,45.0,2
89,-37.0,-254.0,21.0,-49.0,-373.0,-1.0,-124.0,-980.0,50.0,2
90,-37.0,-252.0,20.0,-45.0,-365.0,5.0,-114.0,-985.0,42.0,2
91,-36.0,-253.0,21.0,-42.0,-351.0,10.0,-113.0,-993.0,40.0,2
92,-36.0,-259.0,20.0,-36.0,-340.0,13.0,-110.0,-990.0,38.0,2
93,-37.0,-254.0,18.0,-26.0,-329.0,10.0,-106.0,-995.0,43.0,2
94,-34.0,-257.0,20.0,-13.0,-319.0,9.0,-99.0,-994.0,37.0,2
95,-34.0,-258.0,19.0,6.0,-312.0,4.0,-93.0,-998.0,34.0,2
96,-32.0,-254.0,17.0,23.0,-302.0,0.0,-91.0,-992.0,30.0,2
97,-33.0,-254.0,19.0,34.0,-291.0,-2.0,-111.0,-994.0,24.0,2
98,-39.0,-257.0,16.0,41.0,-283.0,-5.0,-117.0,-991.0,25.0,2
99,-37.0,-254.0,10.0,48.0,-282.0,-7.0,-119.0,-983.0,15.0,2
100,-41.0,-252.0,9.0,55.0,-285.0,-5.0,-127.0,-973.0,-1.0,2
101,-41.0,-245.0,4.0,53.0,-287.0,-1.0,-132.0,-974.0,-11.0,2
102,-46.0,-252.0,1.0,47.0,-290.0,4.0,-141.0,-966.0,-21.0,2
103,-47.0,-250.0,4.0,40.0,-298.0,5.0,-153.0,-963.0,-21.0,2
104,-51.0,-248.0,4.0,29.0,-308.0,8.0,-161.0,-962.0,-24.0,2
105,-52.0,-248.0,2.0,19.0,-319.0,12.0,-173.0,-961.0,-22.0,2
106,-52.0,-250.0,4.0,9.0,-328.0,15.0,-174.0,-964.0,-22.0,2
107,-52.0,-248.0,3.0,-3.0,-337.0,17.0,-173.0,-962.0,-21.0,2
108,-53.0,-250.0,5.0,-22.0,-344.0,22.0,-167.0,-974.0,-31.0,2
109,-52.0,-254.0,1.0,-46.0,-352.0,25.0,-157.0,-985.0,-34.0,2
110,-44.0,-254.0,4.0,-65.0,-365.0,28.0,-139.0,-999.0,-21.0,2
111,-34.0,-259.0,7.0,-74.0,-377.0,28.0,-99.0,-1002.0,-15.0,2
112,-32.0,-262.0,8.0,-74.0,-381.0,26.0,-95.0,-1023.0,-3.0,2
113,-29.0,-265.0,7.0,-67.0,-383.0,16.0,-85.0,-1029.0,5.0,2
114,-28.0,-267.0,11.0,-61.0,-393.0,4.0,-74.0,-1040.0,6.0,2
115,-23.0,-274.0,9.0,-56.0,-405.0,-13.0,-62.0,-1049.0,-1.0,2
116,-20.0,-274.0,6.0,-59.0,-416.0,-34.0,-53.0,-1060.0,-18.0,2
117,-17.0,-272.0,7.0,-66.0,-424.0,-56.0,-32.0,-1059.0,-20.0,2
118,-13.0,-277.0,8.0,-69.0,-431.0,-77.0,-19.0,-1063.0,-16.0,2
119,-8.0,-272.0,8.0,-66.0,-435.0,-99.0,1.0,-1059.0,-9.0,2
120,-3.0,-274.0,4.0,-54.0,-435.0,-118.0,11.0,-1054.0,-17.0,2
121,-5.0,-271.0,0.0,-43.0,-435.0,-137.0,8.0,-1056.0,-27.0,2
122,-1.0,-270.0,-4.0,-38.0,-443.0,-155.0,17.0,-1044.0,-40.0,2
123,-5.0,-266.0,-3.0,-39.0,-452.0,-171.0,13.0,-1033.0,-53.0,2
124,-5.0,-256.0,-8.0,-39.0,-455.0,-182.0,18.0,-1013.0,-54.0,2
125,0.0,-256.0,-5.0,-38.0,-460.0,-190.0,13.0,-987.0,-59.0,2
126,-4.0,-252.0,-6.0,-42.0,-465.0,-194.0,15.0,-971.0,-47.0,2
127,-5.0,-247.0,0.0,-49.0,-470.0,-195.0,14.0,-957.0,-42.0,2
128,-7.0,-244.0,3.0,-61.0,-475.0,-194.0,10.0,-942.0,-31.0,2
129,-4.0,-243.0,6.0,-77.0,-479.0,-192.0,7.0,-932.0,-25.0,2
130,-11.0,-241.0,5.0,-97.0,-483.0,-191.0,-5.0,-937.0,-8.0,2
131,-2.0,-246.0,-1.0,-119.0,-490.0,-193.0,9.0,-941.0,-18.0,2
132,0.0,-247.0,-1.0,-137.0,-478.0,-193.0,20.0,-955.0,-35.0,2
133,-5.0,-250.0,11.0,-159.0,-439.0,-194.0,7.0,-968.0,-15.0,2
134,-7.0,-251.0,14.0,-175.0,-425.0,-198.0,-1.0,-966.0,18.0,2
135,-3.0,-257.0,19.0,-179.0,-438.0,-198.0,20.0,-992.0,35.0,2
136,-7.0,-258.0,26.0,-177.0,-467.0,-208.0,7.0,-1008.0,58.0,2
137,-8.0,-255.0,32.0,-166.0,-496.0,-219.0,2.0,-986.0,75.0,2
138,-3.0,-260.0,32.0,-130.0,-520.0,-221.0,23.0,-1001.0,76.0,2
139,-4.0,-257.0,27.0,-82.0,-543.0,-222.0,18.0,-981.0,68.0,2
140,-7.0,-253.0,20.0,-45.0,-570.0,-220.0,15.0,-994.0,41.0,2
141,-3.0,-239.0,12.0,-27.0,-588.0,-223.0,7.0,-906.0,21.0,2
142,6.0,-247.0,-6.0,-21.0,-574.0,-214.0,41.0,-953.0,-51.0,2
143,3.0,-265.0,-10.0,-64.0,-530.0,-229.0,48.0,-1042.0,-94.0,2
144,-5.0,-275.0,-5.0,-140.0,-523.0,-247.0,31.0,-1075.0,-49.0,2
145,-4.0,-285.0,14.0,-196.0,-564.0,-277.0,34.0,-1115.0,26.0,2
146,-2.0,-294.0,26.0,-196.0,-608.0,-305.0,16.0,-1118.0,56.0,2
147,-4.0,-283.0,25.0,-149.0,-623.0,-314.0,8.0,-1106.0,66.0,2
148,-18.0,-280.0,19.0,-97.0,-630.0,-323.0,-32.0,-1058.0,57.0,2
149,-10.0,-265.0,21.0,-51.0,-636.0,-314.0,-21.0,-1033.0,43.0,2
150,-11.0,-266.0,10.0,-19.0,-631.0,-310.0,-3.0,-1036.0,3.0,2
151,-15.0,-258.0,1.0,-21.0,-633.0,-321.0,-23.0,-1011.0,-4.0,2
152,-9.0,-255.0,6.0,-35.0,-643.0,-323.0,-12.0,-977.0,-6.0,2
153,-2.0,-250.0,7.0,-45.0,-641.0,-321.0,9.0,-968.0,-19.0,2
154,-5.0,-250.0,-1.0,-50.0,-626.0,-318.0,7.0,-957.0,-27.0,2
155,-4.0,-250.0,1.0,-56.0,-613.0,-313.0,0.0,-961.0,-19.0,2
156,-7.0,-249.0,4.0,-63.0,-609.0,-307.0,2.0,-958.0,-17.0,2
157,-10.0,-249.0,8.0,-65.0,-608.0,-301.0,-7.0,-959.0,0.0,2
158,-9.0,-247.0,13.0,-57.0,-613.0,-294.0,2.0,-952.0,9.0,2
159,-8.0,-246.0,11.0,-41.0,-623.0,-282.0,4.0,-950.0,9.0,2
160,-6.0,-246.0,12.0,-25.0,-637.0,-271.0,9.0,-940.0,12.0,2
161,-4.0,-244.0,10.0,-17.0,-654.0,-261.0,16.0,-935.0,8.0,2
162,-3.0,-245.0,7.0,-14.0,-666.0,-250.0,24.0,-930.0,2.0,2
163,-4.0,-241.0,8.0,-19.0,-676.0,-239.0,13.0,-924.0,-1.0,2
164,-11.0,-243.0,5.0,-33.0,-686.0,-233.0,8.0,-943.0,-11.0,2
165,-18.0,-240.0,3.0,-69.0,-696.0,-239.0,-30.0,-942.0,-16.0,2
166,-11.0,-240.0,5.0,-111.0,-701.0,-239.0,-7.0,-924.0,-6.0,2
167,-6.0,-242.0,2.0,-125.0,-714.0,-235.0,11.0,-922.0,-17.0,2
168,-3.0,-240.0,7.0,-117.0,-725.0,-225.0,18.0,-918.0,-22.0,2
169,-2.0,-241.0,-3.0,-108.0,-740.0,-212.0,27.0,-923.0,-26.0,2
170,1.0,-238.0,1.0,-108.0,-757.0,-204.0,25.0,-924.0,-36.0,2
171,0.0,-240.0,-2.0,-116.0,-763.0,-194.0,23.0,-925.0,-38.0,2
172,-4.0,-243.0,3.0,-124.0,-766.0,-185.0,11.0,-934.0,-40.0,2
173,-7.0,-247.0,-1.0,-138.0,-770.0,-176.0,-1.0,-956.0,-33.0,2
174,-6.0,-250.0,2.0,-154.0,-781.0,-171.0,-7.0,-969.0,-25.0,2
175,-9.0,-251.0,8.0,-160.0,-788.0,-170.0,-2.0,-970.0,-15.0,2
176,-11.0,-253.0,12.0,-148.0,-788.0,-163.0,-3.0,-976.0,-3.0,2
177,-15.0,-250.0,7.0,-125.0,-790.0,-156.0,-16.0,-963.0,-7.0,2
178,-11.0,-249.0,7.0,-106.0,-801.0,-150.0,-17.0,-957.0,-10.0,2
179,-13.0,-246.0,5.0,-93.0,-815.0,-140.0,-18.0,-947.0,-17.0,2
180,-13.0,-249.0,5.0,-94.0,-828.0,-134.0,-13.0,-952.0,-23.0,2
181,-13.0,-251.0,9.0,-104.0,-839.0,-127.0,-24.0,-975.0,-17.0,2
182,-14.0,-255.0,11.0,-113.0,-848.0,-120.0,-20.0,-988.0,-11.0,2
183,-10.0,-258.0,6.0,-118.0,-856.0,-118.0,-15.0,-1013.0,1.0,2
184,-6.0,-256.0,10.0,-114.0,-860.0,-116.0,4.0,-1000.0,-2.0,2
185,-6.0,-252.0,4.0,-111.0,-860.0,-110.0,8.0,-974.0,-5.0,2
186,-3.0,-251.0,7.0,-110.0,-858.0,-101.0,18.0,-977.0,-9.0,2
187,-6.0,-253.0,4.0,-110.0,-861.0,-92.0,15.0,-965.0,-16.0,2
188,-1.0,-254.0,3.0,-116.0,-868.0,-84.0,20.0,-981.0,-19.0,2
189,-3.0,-256.0,9.0,-126.0,-873.0,-84.0,28.0,-1003.0,-7.0,2
190,1.0,-258.0,9.0,-129.0,-870.0,-83.0,33.0,-999.0,-4.0,2
191,4.0,-259.0,14.0,-117.0,-864.0,-81.0,47.0,-1006.0,5.0,2
192,4.0,-254.0,14.0,-93.0,-856.0,-83.0,57.0,-981.0,16.0,2
193,4.0,-251.0,11.0,-59.0,-851.0,-84.0,55.0,-972.0,16.0,2
194,2.0,-253.0,5.0,-44.0,-843.0,-78.0,50.0,-982.0,-5.0,2
195,1.0,-252.0,12.0,-57.0,-840.0,-79.0,45.0,-975.0,11.0,2
196,1.0,-253.0,13.0,-76.0,-855.0,-74.0,52.0,-978.0,24.0,2
197,24.0,-253.0,18.0,-81.0,-925.0,-50.0,132.0,-973.0,35.0,2
198,14.0,-246.0,6.0,-63.0,-964.0,-58.0,71.0,-946.0,-4.0,2
199,1.0,-245.0,-1.0,-30.0,-883.0,-76.0,31.0,-946.0,-35.0,2
200,1.0,-240.0,1.0,-7.0,-802.0,-89.0,36.0,-923.0,-22.0,2
201,-3.0,-239.0,7.0,-26.0,-764.0,-105.0,20.0,-920.0,-7.0,2
202,-10.0,-244.0,8.0,-70.0,-758.0,-92.0,5.0,-943.0,-5.0,2
203,-7.0,-256.0,11.0,-109.0,-778.0,-66.0,8.0,-986.0,2.0,2
204,2.0,-259.0,11.0,-120.0,-794.0,-56.0,26.0,-1005.0,9.0,2
205,2.0,-256.0,15.0,-113.0,-778.0,-61.0,43.0,-1014.0,26.0,2
206,2.0,-260.0,15.0,-100.0,-754.0,-66.0,35.0,-1013.0,29.0,2
207,1.0,-262.0,15.0,-89.0,-739.0,-66.0,38.0,-1019.0,36.0,2
208,1.0,-271.0,22.0,-84.0,-728.0,-56.0,39.0,-1033.0,44.0,2
209,4.0,-269.0,18.0,-81.0,-725.0,-47.0,42.0,-1041.0,51.0,2
210,9.0,-269.0,23.0,-77.0,-730.0,-35.0,63.0,-1046.0,54.0,2
211,8.0,-262.0,26.0,-69.0,-726.0,-27.0,71.0,-1044.0,71.0,2
212,8.0,-266.0,30.0,-35.0,-724.0,-27.0,67.0,-1031.0,79.0,2
213,10.0,-262.0,28.0,8.0,-727.0,-26.0,82.0,-1016.0,68.0,2
214,11.0,-256.0,25.0,34.0,-724.0,-23.0,85.0,-1008.0,63.0,2
215,5.0,-253.0,28.0,49.0,-717.0,-16.0,66.0,-984.0,75.0,2
216,7.0,-250.0,28.0,62.0,-718.0,0.0,59.0,-960.0,64.0,2
217,7.0,-247.0,22.0,59.0,-729.0,11.0,64.0,-942.0,55.0,2
218,7.0,-244.0,23.0,37.0,-734.0,18.0,61.0,-943.0,54.0,2
219,5.0,-246.0,24.0,8.0,-734.0,23.0,63.0,-936.0,60.0,2
220,3.0,-245.0,30.0,-7.0,-732.0,27.0,45.0,-934.0,72.0,2
221,1.0,-246.0,33.0,-14.0,-730.0,30.0,36.0,-934.0,78.0,2
222,-1.0,-244.0,29.0,-15.0,-733.0,34.0,29.0,-933.0,87.0,2
223,-7.0,-243.0,30.0,-14.0,-737.0,38.0,15.0,-936.0,87.0,2
224,-4.0,-246.0,33.0,-14.0,-740.0,35.0,15.0,-949.0,82.0,2
225,-10.0,-243.0,35.0,-12.0,-751.0,28.0,-6.0,-931.0,98.0,2
226,-7.0,-241.0,37.0,0.0,-769.0,52.0,9.0,-936.0,93.0,2
227,-9.0,-243.0,30.0,1.0,-776.0,62.0,0.0,-942.0,90.0,2
228,-11.0,-245.0,30.0,-2.0,-786.0,68.0,-4.0,-939.0,72.0,2
229,-10.0,-243.0,28.0,-11.0,-798.0,75.0,-7.0,-937.0,61.0,2
230,-9.0,-246.0,24.0,-24.0,-804.0,84.0,1.0,-947.0,49.0,2
231,-8.0,-248.0,25.0,-43.0,-812.0,87.0,-1.0,-957.0,57.0,2
232,-5.0,-252.0,34.0,-53.0,-814.0,90.0,0.0,-959.0,72.0,2
233,-10.0,-249.0,32.0,-46.0,-817.0,94.0,-2.0,-964.0,76.0,2
234,-8.0,-248.0,33.0,-33.0,-824.0,103.0,10.0,-960.0,89.0,2
235,-6.0,-244.0,34.0,-13.0,-829.0,100.0,11.0,-942.0,96.0,2
236,-7.0,-238.0,41.0,13.0,-835.0,94.0,11.0,-913.0,112.0,2
237,1.0,-238.0,25.0,54.0,-840.0,87.0,32.0,-918.0,53.0,2
238,-10.0,-228.0,18.0,50.0,-827.0,83.0,-7.0,-899.0,50.0,2
239,-7.0,-238.0,21.0,6.0,-831.0,113.0,3.0,-928.0,60.0,2
240,-1.0,-242.0,30.0,-43.0,-846.0,129.0,19.0,-932.0,88.0,2
241,-5.0,-245.0,38.0,-55.0,-845.0,127.0,23.0,-940.0,111.0,2
242,-6.0,-247.0,40.0,-38.0,-845.0,127.0,10.0,-948.0,118.0,2
243,-2.0,-248.0,41.0,-12.0,-849.0,125.0,17.0,-951.0,126.0,2
244,-2.0,-244.0,41.0,11.0,-857.0,118.0,14.0,-945.0,119.0,2
245,-6.0,-240.0,42.0,27.0,-863.0,113.0,23.0,-939.0,120.0,2
246,-2.0,-242.0,41.0,32.0,-863.0,110.0,21.0,-932.0,121.0,2
247,0.0,-247.0,40.0,32.0,-859.0,104.0,19.0,-943.0,118.0,2
248,-3.0,-238.0,42.0,20.0,-850.0,72.0,18.0,-919.0,130.0,2
249,4.0,-244.0,40.0,9.0,-854.0,90.0,50.0,-932.0,131.0,2
250,3.0,-245.0,48.0,-2.0,-847.0,101.0,50.0,-935.0,145.0,2
251,8.0,-246.0,48.0,-4.0,-835.0,101.0,60.0,-955.0,157.0,2
252,7.0,-250.0,50.0,-3.0,-821.0,96.0,60.0,-964.0,161.0,2
253,7.0,-252.0,54.0,3.0,-808.0,87.0,58.0,-975.0,173.0,2
254,7.0,-254.0,54.0,12.0,-792.0,84.0,65.0,-988.0,180.0,2
255,8.0,-258.0,58.0,20.0,-778.0,85.0,68.0,-1008.0,187.0,2
256,9.0,-261.0,58.0,32.0,-763.0,84.0,77.0,-1016.0,200.0,2
257,13.0,-263.0,61.0,45.0,-747.0,79.0,90.0,-1023.0,211.0,2
258,14.0,-267.0,66.0,56.0,-731.0,69.0,90.0,-1034.0,218.0,2
259,18.0,-269.0,65.0,64.0,-720.0,63.0,96.0,-1046.0,231.0,2
260,20.0,-274.0,72.0,65.0,-713.0,54.0,118.0,-1060.0,237.0,2
261,23.0,-272.0,71.0,61.0,-706.0,43.0,128.0,-1071.0,247.0,2
262,21.0,-277.0,76.0,57.0,-695.0,32.0,122.0,-1079.0,259.0,2
263,19.0,-278.0,78.0,62.0,-683.0,21.0,114.0,-1074.0,268.0,2
264,18.0,-276.0,73.0,74.0,-675.0,8.0,108.0,-1069.0,267.0,2
265,17.0,-277.0,77.0,81.0,-671.0,-7.0,105.0,-1069.0,268.0,2
266,18.0,-273.0,81.0,85.0,-667.0,-17.0,113.0,-1061.0,269.0,2
267,16.0,-267.0,81.0,91.0,-664.0,-24.0,109.0,-1047.0,289.0,2
268,11.0,-266.0,83.0,108.0,-663.0,-28.0,83.0,-1036.0,298.0,2
269,5.0,-260.0,83.0,124.0,-666.0,-21.0,68.0,-1020.0,295.0,2
270,10.0,-258.0,79.0,130.0,-680.0,-7.0,88.0,-1010.0,282.0,2
271,22.0,-262.0,70.0,131.0,-698.0,7.0,135.0,-1036.0,221.0,2
272,39.0,-287.0,32.0,124.0,-708.0,14.0,185.0,-1100.0,105.0,2
273,40.0,-308.0,-19.0,95.0,-702.0,6.0,191.0,-1194.0,-83.0,2
274,19.0,-334.0,-63.0,25.0,-665.0,-12.0,116.0,-1281.0,-273.0,2
275,-7.0,-353.0,-71.0,-87.0,-585.0,-41.0,7.0,-1378.0,-327.0,2
276,-23.0,-369.0,-23.0,-220.0,-488.0,-98.0,-52.0,-1422.0,-190.0,2
277,-16.0,-374.0,43.0,-327.0,-436.0,-178.0,-29.0,-1438.0,72.0,2
278,10.0,-378.0,94.0,-351.0,-434.0,-248.0,71.0,-1461.0,293.0,2
279,33.0,-390.0,99.0,-275.0,-445.0,-309.0,172.0,-1493.0,361.0,2
280,48.0,-387.0,76.0,-136.0,-469.0,-337.0,238.0,-1491.0,255.0,2
281,50.0,-376.0,27.0,46.0,-483.0,-334.0,220.0,-1424.0,76.0,2
282,41.0,-350.0,-16.0,224.0,-445.0,-322.0,192.0,-1329.0,-95.0,2
283,38.0,-312.0,-45.0,352.0,-389.0,-282.0,192.0,-1218.0,-231.0,2
284,47.0,-291.0,-66.0,372.0,-401.0,-215.0,231.0,-1138.0,-308.0,2
285,54.0,-275.0,-80.0,351.0,-445.0,-135.0,243.0,-1071.0,-345.0,2
286,43.0,-263.0,-80.0,343.0,-440.0,-52.0,207.0,-1015.0,-376.0,2
287,32.0,-255.0,-85.0,333.0,-414.0,34.0,157.0,-974.0,-390.0,2
288,13.0,-251.0,-89.0,304.0,-426.0,92.0,93.0,-979.0,-394.0,2
289,-1.0,-250.0,-85.0,258.0,-477.0,114.0,34.0,-992.0,-396.0,2
290,-23.0,-255.0,-82.0,196.0,-539.0,108.0,-53.0,-993.0,-378.0,2
291,-41.0,-260.0,-70.0,145.0,-585.0,80.0,-112.0,-1015.0,-327.0,2
292,-54.0,-266.0,-58.0,130.0,-614.0,43.0,-199.0,-1023.0,-280.0,2
293,-66.0,-267.0,-58.0,162.0,-627.0,5.0,-257.0,-1025.0,-267.0,2
294,-84.0,-262.0,-51.0,206.0,-648.0,-39.0,-307.0,-1010.0,-246.0,2
295,-92.0,-251.0,-50.0,237.0,-682.0,-73.0,-334.0,-978.0,-228.0,2
296,-89.0,-248.0,-41.0,228.0,-702.0,-90.0,-321.0,-978.0,-210.0,2
297,-75.0,-258.0,-33.0,155.0,-702.0,-80.0,-282.0,-1003.0,-170.0,2
298,-67.0,-259.0,-17.0,38.0,-684.0,-60.0,-246.0,-1042.0,-103.0,2
299,-65.0,-272.0,0.0,-81.0,-671.0,-36.0,-222.0,-1078.0,-45.0,2
300,-48.0,-296.0,11.0,-163.0,-666.0,-4.0,-176.0,-1131.0,-3.0,2
301,-36.0,-304.0,15.0,-180.0,-636.0,32.0,-127.0,-1168.0,8.0,2
302,-26.0,-310.0,6.0,-139.0,-574.0,88.0,-80.0,-1189.0,-1.0,2
303,-9.0,-306.0,1.0,-65.0,-495.0,162.0,-19.0,-1171.0,-23.0,2
304,9.0,-301.0,0.0,11.0,-426.0,244.0,55.0,-1153.0,-27.0,2
305,25.0,-288.0,-11.0,98.0,-360.0,314.0,122.0,-1107.0,-70.0,2
306,27.0,-278.0,-17.0,153.0,-308.0,373.0,136.0,-1075.0,-98.0,2
307,32.0,-256.0,-21.0,174.0,-274.0,436.0,154.0,-1021.0,-136.0,2
308,39.0,-241.0,-33.0,121.0,-259.0,490.0,174.0,-932.0,-169.0,2
309,50.0,-237.0,-35.0,26.0,-252.0,556.0,225.0,-910.0,-185.0,2
310,69.0,-246.0,-40.0,-48.0,-246.0,616.0,280.0,-946.0,-197.0,2
311,74.0,-254.0,-25.0,-112.0,-212.0,626.0,333.0,-962.0,-170.0,2
312,69.0,-259.0,-19.0,-136.0,-190.0,606.0,324.0,-994.0,-102.0,2
313,67.0,-269.0,2.0,-122.0,-180.0,583.0,301.0,-1021.0,-31.0,2
314,62.0,-253.0,6.0,-75.0,-163.0,557.0,271.0,-983.0,-8.0,2
315,56.0,-253.0,10.0,-46.0,-128.0,554.0,253.0,-955.0,16.0,2
316,39.0,-243.0,9.0,-11.0,-80.0,556.0,199.0,-919.0,2.0,2
317,35.0,-239.0,-7.0,39.0,-67.0,545.0,157.0,-913.0,-70.0,2
318,22.0,-230.0,-15.0,55.0,-67.0,534.0,104.0,-892.0,-103.0,2
319,8.0,-231.0,-15.0,52.0,-33.0,533.0,48.0,-889.0,-95.0,2
320,-7.0,-233.0,-12.0,48.0,29.0,552.0,-1.0,-886.0,-76.0,2
321,-25.0,-251.0,22.0,93.0,51.0,541.0,-51.0,-932.0,24.0,2
322,-33.0,-235.0,14.0,233.0,54.0,525.0,-106.0,-893.0,10.0,2
323,-30.0,-211.0,0.0,326.0,78.0,520.0,-141.0,-853.0,8.0,2
324,-52.0,-200.0,-7.0,371.0,105.0,533.0,-178.0,-792.0,-53.0,2
325,-63.0,-204.0,8.0,372.0,110.0,537.0,-182.0,-891.0,-20.0,2
326,-74.0,-209.0,20.0,348.0,92.0,512.0,-274.0,-803.0,32.0,2
327,-71.0,-182.0,1.0,404.0,64.0,511.0,-230.0,-732.0,-36.0,2
328,-79.0,-186.0,-1.0,391.0,34.0,522.0,-243.0,-754.0,-41.0,2
329,-87.0,-153.0,-20.0,371.0,32.0,534.0,-279.0,-633.0,-97.0,2
330,-20.0,-124.0,-30.0,211.0,27.0,582.0,-105.0,-569.0,-197.0,2
331,-22.0,-73.0,-74.0,-131.0,82.0,546.0,-148.0,-433.0,-283.0,2
332,-52.0,-154.0,-24.0,-689.0,219.0,479.0,-193.0,-550.0,-187.0,2
333,-64.0,-226.0,4.0,-999.0,233.0,499.0,-202.0,-799.0,-52.0,2
334,-75.0,-264.0,35.0,-958.0,113.0,492.0,-233.0,-948.0,89.0,2
335,-62.0,-292.0,43.0,-713.0,-16.0,499.0,-211.0,-1093.0,111.0,2
336,-44.0,-297.0,34.0,-431.0,-77.0,519.0,-142.0,-1121.0,96.0,2
337,-42.0,-282.0,35.0,-200.0,-55.0,512.0,-139.0,-1076.0,94.0,2
338,-41.0,-268.0,40.0,-37.0,-39.0,498.0,-120.0,-1045.0,110.0,2
339,-36.0,-263.0,36.0,84.0,-52.0,473.0,-106.0,-1007.0,107.0,2
340,-34.0,-250.0,28.0,191.0,-59.0,441.0,-107.0,-958.0,58.0,2
341,-28.0,-241.0,5.0,269.0,-63.0,415.0,-88.0,-924.0,-1.0,2
342,-26.0,-230.0,-4.0,281.0,-65.0,384.0,-76.0,-903.0,-57.0,2
343,-24.0,-227.0,-1.0,257.0,-57.0,348.0,-82.0,-881.0,-31.0,2
344,-28.0,-226.0,-2.0,236.0,-40.0,324.0,-77.0,-868.0,-37.0,2
345,-30.0,-223.0,3.0,199.0,-28.0,311.0,-84.0,-869.0,-36.0,2
346,-35.0,-221.0,5.0,161.0,-22.0,312.0,-105.0,-859.0,-8.0,2
347,-39.0,-221.0,15.0,148.0,-19.0,325.0,-113.0,-851.0,27.0,2
348,-30.0,-221.0,7.0,167.0,-25.0,360.0,-91.0,-857.0,1.0,2
349,-27.0,-223.0,10.0,190.0,-18.0,349.0,-88.0,-854.0,19.0,2
350,-36.0,-217.0,2.0,226.0,-11.0,311.0,-107.0,-842.0,-22.0,2
351,-34.0,-210.0,3.0,241.0,-7.0,291.0,-99.0,-819.0,-30.0,2
352,-38.0,-201.0,-3.0,229.0,4.0,277.0,-115.0,-792.0,-48.0,2
353,-41.0,-196.0,-4.0,192.0,11.0,270.0,-137.0,-785.0,-40.0,2
354,-45.0,-198.0,6.0,149.0,15.0,268.0,-150.0,-783.0,-12.0,2
355,-44.0,-201.0,9.0,115.0,22.0,262.0,-162.0,-774.0,7.0,2
356,-45.0,-201.0,12.0,87.0,30.0,252.0,-156.0,-788.0,12.0,2
357,-46.0,-202.0,16.0,57.0,36.0,228.0,-154.0,-787.0,19.0,2
358,-50.0,-202.0,19.0,25.0,44.0,201.0,-163.0,-789.0,30.0,2
359,-50.0,-207.0,19.0,1.0,57.0,179.0,-175.0,-800.0,41.0,2
360,-51.0,-204.0,23.0,-25.0,72.0,161.0,-180.0,-802.0,45.0,2
361,-52.0,-208.0,25.0,-52.0,89.0,146.0,-170.0,-803.0,46.0,2
362,-52.0,-209.0,20.0,-83.0,111.0,130.0,-175.0,-818.0,50.0,2
363,-45.0,-210.0,29.0,-117.0,136.0,112.0,-152.0,-823.0,64.0,2
364,-40.0,-216.0,35.0,-144.0,163.0,94.0,-138.0,-846.0,93.0,2
365,-36.0,-223.0,43.0,-148.0,191.0,77.0,-124.0,-856.0,118.0,2
366,-41.0,-225.0,50.0,-129.0,220.0,57.0,-123.0,-863.0,151.0,2
367,-33.0,-233.0,53.0,-85.0,245.0,43.0,-107.0,-887.0,183.0,2
368,-26.0,-239.0,59.0,-30.0,267.0,27.0,-75.0,-905.0,199.0,2
369,-25.0,-236.0,63.0,25.0,291.0,6.0,-73.0,-912.0,218.0,2
370,-25.0,-238.0,68.0,78.0,313.0,-16.0,-75.0,-914.0,231.0,2
371,-23.0,-237.0,72.0,129.0,327.0,-35.0,-71.0,-905.0,238.0,2
372,-29.0,-236.0,70.0,183.0,336.0,-50.0,-81.0,-906.0,236.0,2
373,-38.0,-229.0,68.0,238.0,342.0,-64.0,-116.0,-886.0,229.0,2
374,-46.0,-226.0,63.0,282.0,344.0,-73.0,-158.0,-878.0,211.0,2
375,-55.0,-224.0,60.0,304.0,340.0,-78.0,-178.0,-868.0,196.0,2
376,-54.0,-223.0,57.0,304.0,330.0,-79.0,-185.0,-867.0,188.0,2
377,-56.0,-226.0,53.0,286.0,322.0,-79.0,-191.0,-875.0,176.0,2
378,-57.0,-227.0,49.0,259.0,315.0,-78.0,-190.0,-898.0,157.0,2
379,-62.0,-232.0,50.0,223.0,306.0,-77.0,-201.0,-917.0,161.0,2
380,-64.0,-239.0,47.0,187.0,286.0,-57.0,-224.0,-931.0,163.0,2
381,-62.0,-251.0,53.0,165.0,270.0,-19.0,-212.0,-993.0,177.0,2
382,-74.0,-259.0,58.0,152.0,261.0,-25.0,-269.0,-1025.0,187.0,2
383,-90.0,-272.0,62.0,136.0,239.0,6.0,-314.0,-1066.0,193.0,2
384,-90.0,-279.0,61.0,108.0,212.0,72.0,-337.0,-1125.0,193.0,2
385,-102.0,-297.0,65.0,61.0,197.0,133.0,-355.0,-1171.0,210.0,2
386,-101.0,-303.0,70.0,7.0,181.0,182.0,-362.0,-1202.0,236.0,2
387,-96.0,-308.0,77.0,-42.0,155.0,232.0,-344.0,-1210.0,282.0,2
388,-83.0,-306.0,82.0,-76.0,126.0,274.0,-306.0,-1202.0,291.0,2
389,-77.0,-302.0,87.0,-94.0,109.0,289.0,-258.0,-1166.0,310.0,2
390,-65.0,-285.0,87.0,-99.0,107.0,282.0,-224.0,-1120.0,304.0,2
391,-56.0,-273.0,78.0,-95.0,119.0,260.0,-190.0,-1070.0,287.0,2
392,-54.0,-255.0,75.0,-100.0,141.0,226.0,-166.0,-1021.0,265.0,2
393,-48.0,-248.0,76.0,-130.0,171.0,195.0,-151.0,-974.0,262.0,2
394,-44.0,-246.0,74.0,-166.0,198.0,176.0,-140.0,-958.0,261.0,2
395,-40.0,-250.0,78.0,-212.0,231.0,162.0,-122.0,-982.0,272.0,2
396,-42.0,-265.0,83.0,-245.0,265.0,148.0,-117.0,-1034.0,302.0,2
397,-48.0,-287.0,98.0,-260.0,283.0,139.0,-133.0,-1100.0,333.0,2
398,-66.0,-315.0,102.0,-228.0,308.0,128.0,-209.0,-1200.0,357.0,2
399,-69.0,-352.0,76.0,-127.0,324.0,125.0,-237.0,-1325.0,261.0,2
400,-57.0,-372.0,29.0,19.0,315.0,111.0,-171.0,-1453.0,81.0,2
401,-36.0,-383.0,-21.0,78.0,312.0,117.0,-112.0,-1528.0,-112.0,2
402,-37.0,-397.0,-8.0,15.0,388.0,168.0,-116.0,-1555.0,-65.0,2
403,-45.0,-394.0,36.0,-85.0,500.0,233.0,-152.0,-1537.0,91.0,2
404,-72.0,-381.0,96.0,-166.0,596.0,308.0,-222.0,-1488.0,324.0,2
405,-90.0,-377.0,122.0,-138.0,570.0,381.0,-292.0,-1462.0,403.0,2
406,-108.0,-364.0,89.0,-20.0,499.0,410.0,-372.0,-1414.0,322.0,2
407,-125.0,-349.0,48.0,157.0,424.0,399.0,-450.0,-1341.0,173.0,2
408,-126.0,-321.0,10.0,340.0,349.0,376.0,-458.0,-1242.0,22.0,2
409,-108.0,-288.0,-27.0,463.0,289.0,350.0,-404.0,-1141.0,-133.0,2
410,-105.0,-265.0,-64.0,486.0,267.0,329.0,-385.0,-1051.0,-306.0,2
411,-121.0,-248.0,-85.0,417.0,282.0,312.0,-462.0,-980.0,-399.0,2
412,-130.0,-244.0,-88.0,301.0,302.0,316.0,-478.0,-953.0,-380.0,2
413,-99.0,-248.0,-82.0,225.0,318.0,327.0,-356.0,-956.0,-354.0,2
414,-65.0,-245.0,-73.0,205.0,365.0,313.0,-244.0,-926.0,-329.0,2
415,-48.0,-249.0,-64.0,220.0,471.0,300.0,-178.0,-947.0,-304.0,2
416,-36.0,-248.0,-64.0,248.0,590.0,289.0,-125.0,-955.0,-302.0,2
417,-13.0,-251.0,-68.0,267.0,668.0,297.0,-38.0,-965.0,-306.0,2
418,16.0,-255.0,-73.0,267.0,698.0,321.0,67.0,-983.0,-316.0,2
419,28.0,-257.0,-71.0,243.0,713.0,342.0,134.0,-992.0,-331.0,2
420,27.0,-259.0,-68.0,210.0,726.0,370.0,150.0,-1012.0,-324.0,2
421,36.0,-270.0,-57.0,183.0,717.0,407.0,168.0,-1033.0,-286.0,2
422,47.0,-285.0,-51.0,162.0,674.0,420.0,226.0,-1100.0,-244.0,2
423,55.0,-303.0,-35.0,140.0,624.0,380.0,247.0,-1154.0,-193.0,2
424,54.0,-313.0,-20.0,112.0,612.0,303.0,247.0,-1213.0,-118.0,2
425,50.0,-318.0,7.0,86.0,642.0,210.0,228.0,-1230.0,-26.0,2
426,33.0,-321.0,33.0,76.0,677.0,105.0,168.0,-1248.0,75.0,2
427,6.0,-325.0,47.0,105.0,684.0,9.0,93.0,-1248.0,159.0,2
428,-5.0,-327.0,47.0,174.0,660.0,-79.0,36.0,-1269.0,156.0,2
429,-17.0,-331.0,42.0,225.0,622.0,-175.0,-22.0,-1280.0,131.0,2
430,-31.0,-333.0,31.0,246.0,570.0,-275.0,-77.0,-1282.0,102.0,2
431,-52.0,-321.0,26.0,248.0,514.0,-377.0,-145.0,-1257.0,70.0,2
432,-71.0,-305.0,19.0,251.0,442.0,-470.0,-220.0,-1179.0,40.0,2
433,-78.0,-280.0,10.0,253.0,342.0,-558.0,-260.0,-1097.0,10.0,2
434,-81.0,-257.0,-3.0,243.0,229.0,-630.0,-274.0,-993.0,-22.0,2
435,-88.0,-238.0,-6.0,209.0,127.0,-686.0,-318.0,-917.0,-64.0,2
436,-101.0,-219.0,-20.0,148.0,46.0,-722.0,-368.0,-869.0,-126.0,2
437,-101.0,-200.0,-43.0,61.0,9.0,-738.0,-380.0,-809.0,-193.0,2
438,-100.0,-186.0,-54.0,-66.0,11.0,-749.0,-377.0,-742.0,-251.0,2
439,-97.0,-178.0,-61.0,-221.0,35.0,-751.0,-369.0,-717.0,-276.0,2
440,-93.0,-182.0,-51.0,-391.0,64.0,-739.0,-348.0,-718.0,-243.0,2
441,-87.0,-190.0,-18.0,-512.0,91.0,-717.0,-329.0,-736.0,-118.0,2
442,-91.0,-199.0,5.0,-504.0,104.0,-680.0,-328.0,-766.0,-22.0,2
443,-90.0,-221.0,9.0,-426.0,89.0,-636.0,-322.0,-868.0,19.0,2
444,-81.0,-243.0,20.0,-343.0,51.0,-602.0,-282.0,-927.0,41.0,2
445,-69.0,-248.0,29.0,-247.0,8.0,-578.0,-238.0,-952.0,54.0,2
446,-58.0,-253.0,21.0,-131.0,-44.0,-558.0,-203.0,-958.0,51.0,2
447,-54.0,-250.0,9.0,-12.0,-88.0,-540.0,-170.0,-962.0,-2.0,2
448,-50.0,-247.0,4.0,62.0,-126.0,-520.0,-154.0,-947.0,-6.0,2
449,-39.0,-236.0,0.0,111.0,-171.0,-511.0,-120.0,-920.0,-25.0,2
450,-24.0,-227.0,-8.0,130.0,-219.0,-513.0,-80.0,-878.0,-57.0,2
451,-20.0,-213.0,-4.0,117.0,-256.0,-524.0,-43.0,-847.0,-47.0,2
452,-9.0,-206.0,-2.0,93.0,-282.0,-530.0,-16.0,-808.0,-52.0,2
453,2.0,-197.0,-5.0,64.0,-298.0,-533.0,26.0,-770.0,-61.0,2
454,9.0,-190.0,-6.0,31.0,-306.0,-527.0,59.0,-743.0,-57.0,2
455,12.0,-186.0,-15.0,12.0,-311.0,-517.0,71.0,-729.0,-94.0,2
456,19.0,-184.0,-23.0,-34.0,-313.0,-502.0,102.0,-720.0,-124.0,2
457,21.0,-182.0,-19.0,-92.0,-309.0,-494.0,116.0,-705.0,-108.0,2
458,27.0,-185.0,-18.0,-133.0,-307.0,-497.0,131.0,-714.0,-103.0,2
459,27.0,-192.0,-8.0,-152.0,-309.0,-508.0,127.0,-728.0,-74.0,2
460,24.0,-196.0,-4.0,-152.0,-313.0,-511.0,130.0,-753.0,-50.0,2
461,21.0,-197.0,5.0,-135.0,-304.0,-505.0,109.0,-777.0,-10.0,2
462,12.0,-205.0,11.0,-104.0,-289.0,-491.0,88.0,-780.0,9.0,2
463,13.0,-207.0,11.0,-67.0,-277.0,-474.0,88.0,-793.0,16.0,2
464,13.0,-208.0,10.0,-40.0,-265.0,-463.0,79.0,-809.0,6.0,2
465,10.0,-212.0,12.0,-31.0,-245.0,-457.0,72.0,-809.0,16.0,2
466,5.0,-208.0,7.0,-32.0,-230.0,-452.0,62.0,-809.0,-8.0,2
467,9.0,-212.0,8.0,-54.0,-224.0,-447.0,50.0,-825.0,-10.0,2
468,6.0,-216.0,-2.0,-88.0,-218.0,-441.0,47.0,-843.0,-40.0,2
469,-3.0,-220.0,17.0,-133.0,-208.0,-424.0,16.0,-843.0,32.0,2
470,2.0,-218.0,29.0,-110.0,-193.0,-395.0,45.0,-849.0,66.0,2
471,-3.0,-217.0,20.0,-52.0,-174.0,-385.0,19.0,-847.0,46.0,2
472,-8.0,-217.0,23.0,-17.0,-159.0,-365.0,-6.0,-839.0,49.0,2
473,-6.0,-220.0,22.0,-9.0,-160.0,-325.0,-1.0,-846.0,59.0,2
474,-4.0,-217.0,20.0,-16.0,-148.0,-277.0,14.0,-848.0,54.0,2
475,-2.0,-222.0,28.0,-34.0,-122.0,-229.0,22.0,-858.0,65.0,2
476,2.0,-222.0,34.0,-46.0,-101.0,-179.0,37.0,-849.0,82.0,2
477,5.0,-220.0,39.0,-37.0,-92.0,-139.0,49.0,-848.0,101.0,2
478,1.0,-214.0,32.0,-9.0,-90.0,-106.0,57.0,-836.0,111.0,2
479,8.0,-216.0,36.0,19.0,-84.0,-74.0,67.0,-832.0,110.0,2
480,11.0,-211.0,32.0,38.0,-68.0,-42.0,73.0,-817.0,101.0,2
481,12.0,-208.0,32.0,46.0,-46.0,-13.0,68.0,-803.0,97.0,2
482,9.0,-203.0,36.0,53.0,-24.0,9.0,73.0,-788.0,103.0,2
483,4.0,-199.0,33.0,61.0,-9.0,22.0,57.0,-768.0,87.0,2
484,3.0,-193.0,28.0,52.0,-1.0,34.0,44.0,-747.0,79.0,2
485,0.0,-191.0,21.0,30.0,4.0,48.0,28.0,-741.0,71.0,2
486,0.0,-191.0,26.0,-5.0,1.0,69.0,20.0,-754.0,66.0,2
487,-9.0,-196.0,30.0,-59.0,-5.0,88.0,4.0,-763.0,72.0,2
488,-16.0,-201.0,36.0,-111.0,-16.0,115.0,-26.0,-793.0,102.0,2
489,-19.0,-214.0,46.0,-136.0,-39.0,144.0,-37.0,-834.0,143.0,2
490,-20.0,-226.0,60.0,-126.0,-73.0,164.0,-52.0,-870.0,185.0,2
491,-29.0,-238.0,68.0,-83.0,-117.0,179.0,-75.0,-908.0,234.0,2
492,-33.0,-242.0,83.0,-6.0,-168.0,185.0,-88.0,-922.0,278.0,2
493,-38.0,-237.0,78.0,106.0,-229.0,179.0,-103.0,-913.0,270.0,2
494,-35.0,-235.0,64.0,209.0,-289.0,173.0,-96.0,-904.0,222.0,2
495,-27.0,-235.0,53.0,270.0,-337.0,182.0,-77.0,-908.0,182.0,2
496,-17.0,-236.0,40.0,289.0,-366.0,196.0,-40.0,-922.0,130.0,2
497,-18.0,-244.0,27.0,262.0,-379.0,208.0,-30.0,-938.0,74.0,2
498,-8.0,-251.0,20.0,207.0,-380.0,222.0,0.0,-989.0,41.0,2
499,-3.0,-262.0,23.0,142.0,-377.0,228.0,11.0,-1031.0,46.0,2
500,-1.0,-280.0,24.0,95.0,-371.0,232.0,23.0,-1085.0,60.0,2
501,-1.0,-301.0,31.0,75.0,-358.0,231.0,27.0,-1154.0,77.0,2
502,-10.0,-319.0,36.0,79.0,-333.0,220.0,-11.0,-1220.0,94.0,2
503,-25.0,-334.0,46.0,97.0,-312.0,203.0,-58.0,-1291.0,132.0,2
504,-38.0,-348.0,65.0,116.0,-312.0,176.0,-89.0,-1347.0,195.0,2
505,-28.0,-356.0,77.0,134.0,-332.0,131.0,-76.0,-1377.0,267.0,2
506,-10.0,-359.0,88.0,141.0,-353.0,63.0,-13.0,-1394.0,304.0,2
507,3.0,-358.0,83.0,128.0,-359.0,-23.0,41.0,-1393.0,305.0,2
508,7.0,-352.0,82.0,90.0,-353.0,-100.0,85.0,-1378.0,288.0,2
509,9.0,-346.0,77.0,55.0,-349.0,-171.0,96.0,-1350.0,257.0,2
510,13.0,-334.0,65.0,43.0,-347.0,-222.0,93.0,-1298.0,218.0,2
511,8.0,-323.0,54.0,58.0,-338.0,-244.0,74.0,-1246.0,186.0,2
512,2.0,-305.0,50.0,87.0,-329.0,-241.0,51.0,-1186.0,164.0,2
513,-7.0,-287.0,43.0,92.0,-328.0,-224.0,18.0,-1132.0,138.0,2
514,-23.0,-273.0,38.0,50.0,-339.0,-194.0,-37.0,-1075.0,136.0,2
515,-22.0,-266.0,40.0,-36.0,-361.0,-164.0,-50.0,-1053.0,113.0,2
516,-36.0,-261.0,53.0,-146.0,-381.0,-143.0,-98.0,-1019.0,156.0,2
517,-44.0,-260.0,66.0,-226.0,-420.0,-120.0,-124.0,-1021.0,227.0,2
518,-34.0,-271.0,86.0,-264.0,-481.0,-105.0,-100.0,-1045.0,317.0,2
519,-10.0,-292.0,93.0,-255.0,-547.0,-92.0,22.0,-1132.0,333.0,2
520,5.0,-320.0,58.0,-193.0,-622.0,-97.0,63.0,-1251.0,180.0,2
521,-20.0,-342.0,6.0,-132.0,-658.0,-119.0,-57.0,-1333.0,-24.0,2
522,-39.0,-357.0,-28.0,-93.0,-624.0,-123.0,-139.0,-1383.0,-167.0,2
523,-37.0,-358.0,-30.0,-73.0,-536.0,-136.0,-117.0,-1397.0,-173.0,2
524,-21.0,-364.0,-3.0,-83.0,-444.0,-192.0,-43.0,-1406.0,-47.0,2
525,-4.0,-360.0,42.0,-91.0,-391.0,-265.0,18.0,-1394.0,117.0,2
526,15.0,-353.0,61.0,-34.0,-363.0,-324.0,98.0,-1353.0,197.0,2
527,59.0,-345.0,39.0,83.0,-326.0,-350.0,259.0,-1313.0,117.0,2
528,116.0,-333.0,-17.0,197.0,-273.0,-343.0,463.0,-1270.0,-78.0,2
529,159.0,-318.0,-65.0,289.0,-183.0,-329.0,623.0,-1184.0,-332.0,2
530,166.0,-291.0,-103.0,373.0,-28.0,-327.0,678.0,-1099.0,-453.0,2
531,149.0,-265.0,-100.0,434.0,147.0,-344.0,614.0,-1024.0,-471.0,2
532,134.0,-249.0,-90.0,430.0,232.0,-365.0,567.0,-966.0,-405.0,2
533,124.0,-248.0,-65.0,371.0,222.0,-377.0,530.0,-945.0,-330.0,2
534,98.0,-247.0,-43.0,294.0,166.0,-394.0,432.0,-928.0,-241.0,2
535,49.0,-241.0,-49.0,275.0,116.0,-423.0,266.0,-920.0,-222.0,2
536,0.0,-245.0,-61.0,296.0,73.0,-449.0,64.0,-936.0,-278.0,2
537,-44.0,-250.0,-70.0,280.0,26.0,-445.0,-115.0,-972.0,-326.0,2
538,-73.0,-263.0,-68.0,211.0,-42.0,-416.0,-238.0,-1021.0,-327.0,2
539,-95.0,-272.0,-45.0,150.0,-85.0,-378.0,-333.0,-1048.0,-256.0,2
540,-109.0,-277.0,-29.0,144.0,-98.0,-342.0,-386.0,-1092.0,-167.0,2
541,-114.0,-278.0,-21.0,146.0,-120.0,-326.0,-418.0,-1102.0,-120.0,2
542,-118.0,-285.0,-13.0,129.0,-160.0,-316.0,-430.0,-1130.0,-73.0,2
543,-120.0,-292.0,-14.0,87.0,-182.0,-288.0,-447.0,-1147.0,-76.0,2
544,-115.0,-301.0,-14.0,22.0,-178.0,-230.0,-423.0,-1180.0,-91.0,2
545,-100.0,-314.0,-10.0,-31.0,-166.0,-159.0,-380.0,-1223.0,-67.0,2
546,-91.0,-324.0,-11.0,-35.0,-146.0,-85.0,-326.0,-1261.0,-79.0,2
547,-75.0,-328.0,-16.0,-37.0,-102.0,0.0,-264.0,-1287.0,-96.0,2
548,-60.0,-336.0,-10.0,-62.0,-43.0,81.0,-213.0,-1304.0,-79.0,2
549,-52.0,-335.0,3.0,-84.0,2.0,159.0,-160.0,-1295.0,-24.0,2
550,-29.0,-328.0,13.0,-78.0,26.0,234.0,-92.0,-1281.0,4.0,2
551,-7.0,-320.0,15.0,-59.0,63.0,307.0,13.0,-1230.0,17.0,2
552,10.0,-306.0,16.0,-29.0,124.0,369.0,84.0,-1164.0,17.0,2
553,20.0,-284.0,9.0,26.0,193.0,416.0,111.0,-1081.0,15.0,2
554,25.0,-263.0,11.0,111.0,261.0,470.0,127.0,-1001.0,8.0,2
555,31.0,-246.0,0.0,197.0,302.0,535.0,147.0,-922.0,-32.0,2
556,50.0,-224.0,-9.0,246.0,324.0,597.0,199.0,-879.0,-86.0,2
557,53.0,-218.0,-20.0,237.0,347.0,648.0,234.0,-849.0,-113.0,2
558,62.0,-214.0,-28.0,181.0,382.0,677.0,271.0,-829.0,-131.0,2
559,72.0,-210.0,-23.0,92.0,416.0,692.0,300.0,-821.0,-138.0,2
560,67.0,-215.0,-16.0,-16.0,447.0,697.0,300.0,-836.0,-116.0,2
561,65.0,-226.0,-3.0,-105.0,480.0,692.0,288.0,-851.0,-54.0,2
562,57.0,-229.0,13.0,-145.0,504.0,674.0,257.0,-880.0,2.0,2
563,51.0,-238.0,9.0,-129.0,509.0,650.0,216.0,-900.0,-3.0,2
564,44.0,-252.0,9.0,-108.0,523.0,620.0,212.0,-956.0,-4.0,2
565,29.0,-248.0,27.0,-82.0,542.0,576.0,158.0,-943.0,49.0,2
566,34.0,-239.0,17.0,5.0,552.0,539.0,156.0,-912.0,42.0,2
567,28.0,-226.0,6.0,87.0,572.0,499.0,130.0,-861.0,0.0,2
568,4.0,-204.0,0.0,127.0,599.0,470.0,58.0,-796.0,-20.0,2
569,-3.0,-193.0,-3.0,126.0,621.0,460.0,13.0,-759.0,-44.0,2
570,-16.0,-191.0,0.0,86.0,625.0,438.0,-26.0,-754.0,-38.0,2
571,-25.0,-183.0,1.0,30.0,611.0,395.0,-49.0,-721.0,-35.0,2
572,-43.0,-188.0,9.0,-19.0,596.0,359.0,-110.0,-734.0,1.0,2
573,-38.0,-200.0,11.0,-39.0,582.0,338.0,-125.0,-775.0,19.0,2
574,-49.0,-201.0,32.0,-30.0,581.0,313.0,-163.0,-780.0,92.0,2
575,-49.0,-201.0,17.0,36.0,579.0,300.0,-185.0,-790.0,28.0,2
576,-60.0,-202.0,17.0,70.0,591.0,287.0,-205.0,-789.0,34.0,2
577,-57.0,-185.0,14.0,86.0,610.0,284.0,-196.0,-727.0,24.0,2
578,-48.0,-189.0,1.0,93.0,639.0,289.0,-162.0,-704.0,3.0,2
579,-50.0,-170.0,10.0,81.0,662.0,266.0,-166.0,-672.0,6.0,2
580,-66.0,-173.0,2.0,53.0,680.0,242.0,-221.0,-689.0,-19.0,2
581,-64.0,-189.0,5.0,-18.0,667.0,265.0,-232.0,-740.0,-22.0,2
582,-59.0,-200.0,16.0,-121.0,653.0,283.0,-202.0,-781.0,30.0,2
583,-60.0,-210.0,27.0,-186.0,649.0,284.0,-192.0,-809.0,79.0,2
584,-48.0,-206.0,38.0,-200.0,623.0,278.0,-162.0,-798.0,110.0,2
585,-52.0,-200.0,43.0,-168.0,607.0,257.0,-184.0,-778.0,126.0,2
586,-66.0,-197.0,43.0,-116.0,591.0,240.0,-217.0,-777.0,121.0,2
587,-57.0,-197.0,38.0,-86.0,548.0,254.0,-193.0,-781.0,105.0,2
588,-38.0,-206.0,33.0,-86.0,497.0,286.0,-167.0,-803.0,93.0,2
589,-52.0,-204.0,22.0,-96.0,501.0,279.0,-174.0,-806.0,55.0,2
590,-48.0,-215.0,26.0,-134.0,511.0,257.0,-159.0,-836.0,60.0,2
591,-34.0,-226.0,39.0,-179.0,486.0,218.0,-105.0,-880.0,94.0,2
592,-40.0,-228.0,41.0,-183.0,473.0,163.0,-114.0,-863.0,135.0,2
593,-41.0,-221.0,39.0,-129.0,470.0,122.0,-127.0,-852.0,128.0,2
594,-41.0,-217.0,41.0,-74.0,453.0,93.0,-131.0,-833.0,124.0,2
595,-44.0,-212.0,30.0,-32.0,435.0,73.0,-146.0,-827.0,81.0,2
596,-46.0,-213.0,24.0,-34.0,422.0,53.0,-150.0,-835.0,63.0,2
597,-46.0,-209.0,25.0,-62.0,406.0,29.0,-151.0,-818.0,57.0,2
598,-45.0,-207.0,23.0,-88.0,388.0,5.0,-148.0,-823.0,56.0,2
599,-46.0,-207.0,23.0,-108.0,380.0,-16.0,-160.0,-808.0,48.0,2
600,-53.0,-205.0,21.0,-121.0,374.0,-35.0,-187.0,-796.0,58.0,2
601,-57.0,-203.0,30.0,-121.0,360.0,-56.0,-188.0,-783.0,67.0,2
602,-58.0,-192.0,17.0,-99.0,347.0,-87.0,-195.0,-769.0,52.0,2
603,-56.0,-193.0,31.0,-89.0,331.0,-114.0,-194.0,-751.0,65.0,2
604,-54.0,-193.0,33.0,-82.0,336.0,-123.0,-193.0,-759.0,91.0,2
605,-50.0,-195.0,40.0,-82.0,339.0,-127.0,-163.0,-770.0,111.0,2
606,-45.0,-199.0,44.0,-93.0,327.0,-140.0,-141.0,-787.0,142.0,2
607,-42.0,-206.0,49.0,-99.0,322.0,-162.0,-125.0,-806.0,160.0,2
608,-37.0,-214.0,55.0,-89.0,327.0,-183.0,-110.0,-830.0,185.0,2
609,-34.0,-220.0,60.0,-60.0,335.0,-205.0,-115.0,-847.0,213.0,2
610,-43.0,-230.0,78.0,-7.0,351.0,-214.0,-138.0,-880.0,274.0,2
611,-43.0,-238.0,91.0,80.0,348.0,-223.0,-149.0,-899.0,304.0,2
612,-45.0,-239.0,79.0,175.0,325.0,-231.0,-140.0,-910.0,289.0,2
613,-46.0,-237.0,61.0,251.0,300.0,-236.0,-146.0,-912.0,209.0,2
614,-51.0,-239.0,39.0,288.0,278.0,-237.0,-160.0,-920.0,123.0,2
615,-60.0,-242.0,21.0,290.0,264.0,-233.0,-204.0,-930.0,54.0,2
616,-65.0,-247.0,11.0,272.0,251.0,-224.0,-232.0,-952.0,19.0,2
617,-72.0,-250.0,12.0,240.0,232.0,-213.0,-251.0,-972.0,19.0,2
618,-71.0,-256.0,17.0,201.0,210.0,-198.0,-255.0,-1006.0,29.0,2
619,-67.0,-260.0,19.0,148.0,188.0,-183.0,-233.0,-1035.0,34.0,2
620,-62.0,-268.0,18.0,74.0,161.0,-164.0,-217.0,-1064.0,44.0,2
621,-63.0,-281.0,27.0,-1.0,144.0,-135.0,-210.0,-1092.0,72.0,2
622,-67.0,-288.0,40.0,-50.0,142.0,-94.0,-218.0,-1117.0,113.0,2
623,-75.0,-293.0,54.0,-64.0,140.0,-36.0,-247.0,-1146.0,153.0,2
624,-87.0,-302.0,58.0,-53.0,129.0,17.0,-292.0,-1168.0,188.0,2
625,-96.0,-306.0,61.0,-40.0,103.0,73.0,-338.0,-1192.0,206.0,2
626,-104.0,-313.0,71.0,-40.0,61.0,153.0,-355.0,-1215.0,233.0,2
627,-98.0,-318.0,77.0,-49.0,21.0,246.0,-343.0,-1241.0,266.0,2
628,-82.0,-321.0,83.0,-48.0,-7.0,329.0,-286.0,-1246.0,283.0,2
629,-64.0,-317.0,79.0,-36.0,-20.0,387.0,-224.0,-1239.0,281.0,2
630,-49.0,-312.0,79.0,-29.0,-18.0,420.0,-154.0,-1225.0,281.0,2
631,-32.0,-301.0,74.0,-20.0,-6.0,432.0,-88.0,-1180.0,263.0,2
632,-11.0,-291.0,72.0,-8.0,24.0,429.0,-20.0,-1129.0,253.0,2
633,2.0,-273.0,75.0,5.0,69.0,409.0,24.0,-1058.0,257.0,2
634,3.0,-255.0,79.0,2.0,117.0,384.0,52.0,-1016.0,274.0,2
635,14.0,-248.0,80.0,-31.0,158.0,355.0,79.0,-970.0,291.0,2
636,23.0,-244.0,90.0,-85.0,207.0,323.0,116.0,-941.0,313.0,2
637,29.0,-243.0,103.0,-142.0,290.0,284.0,129.0,-935.0,363.0,2
638,28.0,-243.0,110.0,-181.0,381.0,237.0,137.0,-939.0,410.0,2
639,18.0,-255.0,120.0,-197.0,460.0,190.0,95.0,-993.0,454.0,2
640,-15.0,-270.0,125.0,-177.0,525.0,144.0,-45.0,-1055.0,453.0,2
641,-56.0,-296.0,99.0,-104.0,550.0,97.0,-199.0,-1156.0,351.0,2
642,-62.0,-319.0,46.0,8.0,520.0,40.0,-202.0,-1244.0,148.0,2
643,-37.0,-342.0,-21.0,52.0,482.0,4.0,-116.0,-1344.0,-122.0,2
644,-21.0,-360.0,-54.0,-34.0,519.0,12.0,-69.0,-1424.0,-264.0,2
645,-28.0,-375.0,-14.0,-183.0,603.0,41.0,-81.0,-1463.0,-147.0,2
646,-33.0,-372.0,59.0,-308.0,663.0,76.0,-83.0,-1449.0,103.0,2
647,-53.0,-375.0,101.0,-352.0,687.0,107.0,-126.0,-1442.0,321.0,2
648,-97.0,-364.0,107.0,-281.0,683.0,123.0,-277.0,-1399.0,371.0,2
649,-138.0,-353.0,66.0,-118.0,617.0,168.0,-488.0,-1355.0,232.0,2
650,-156.0,-330.0,18.0,72.0,517.0,203.0,-554.0,-1280.0,46.0,2
651,-151.0,-304.0,-34.0,236.0,426.0,200.0,-557.0,-1174.0,-148.0,2
652,-138.0,-270.0,-90.0,355.0,350.0,197.0,-521.0,-1073.0,-358.0,2
653,-144.0,-237.0,-122.0,405.0,312.0,188.0,-544.0,-936.0,-507.0,2
654,-138.0,-203.0,-137.0,389.0,317.0,211.0,-552.0,-822.0,-590.0,2
655,-131.0,-190.0,-117.0,330.0,368.0,275.0,-513.0,-752.0,-548.0,2
656,-108.0,-199.0,-91.0,277.0,444.0,349.0,-421.0,-782.0,-424.0,2
657,-76.0,-219.0,-79.0,216.0,515.0,385.0,-297.0,-854.0,-371.0,2
658,-53.0,-223.0,-45.0,94.0,569.0,389.0,-205.0,-875.0,-260.0,2
659,-22.0,-241.0,-21.0,-10.0,573.0,419.0,-63.0,-938.0,-117.0,2
660,-1.0,-262.0,-9.0,-55.0,529.0,446.0,26.0,-1025.0,-71.0,2
661,6.0,-278.0,-4.0,-73.0,475.0,443.0,84.0,-1080.0,-64.0,2
662,17.0,-294.0,-7.0,-91.0,421.0,416.0,116.0,-1130.0,-68.0,2
663,23.0,-302.0,-6.0,-114.0,360.0,369.0,127.0,-1173.0,-53.0,2
664,18.0,-307.0,-8.0,-135.0,314.0,303.0,98.0,-1213.0,-42.0,2
665,16.0,-326.0,8.0,-150.0,292.0,231.0,101.0,-1274.0,-7.0,2
666,12.0,-346.0,24.0,-157.0,299.0,136.0,89.0,-1334.0,54.0,2
667,9.0,-359.0,44.0,-129.0,317.0,32.0,73.0,-1376.0,124.0,2
668,1.0,-362.0,59.0,-52.0,326.0,-80.0,55.0,-1393.0,184.0,2
669,-2.0,-362.0,68.0,55.0,322.0,-194.0,35.0,-1405.0,218.0,2
670,-8.0,-363.0,65.0,171.0,303.0,-314.0,4.0,-1387.0,214.0,2
671,-21.0,-353.0,51.0,270.0,274.0,-429.0,-40.0,-1357.0,157.0,2
672,-33.0,-337.0,32.0,334.0,241.0,-521.0,-91.0,-1300.0,93.0,2
673,-50.0,-319.0,16.0,361.0,194.0,-594.0,-141.0,-1250.0,22.0,2
674,-59.0,-298.0,-7.0,361.0,126.0,-651.0,-182.0,-1170.0,-48.0,2
675,-66.0,-268.0,-23.0,339.0,38.0,-694.0,-215.0,-1071.0,-116.0,2
676,-83.0,-239.0,-45.0,287.0,-53.0,-720.0,-264.0,-960.0,-196.0,2
677,-79.0,-217.0,-61.0,202.0,-129.0,-720.0,-288.0,-872.0,-263.0,2
678,-82.0,-199.0,-67.0,84.0,-173.0,-714.0,-293.0,-801.0,-300.0,2
679,-75.0,-187.0,-64.0,-43.0,-194.0,-698.0,-286.0,-748.0,-303.0,2
680,-74.0,-182.0,-57.0,-163.0,-176.0,-676.0,-283.0,-723.0,-261.0,2
681,-68.0,-183.0,-39.0,-261.0,-136.0,-653.0,-257.0,-722.0,-200.0,2
682,-63.0,-187.0,-19.0,-323.0,-81.0,-627.0,-240.0,-721.0,-117.0,2
683,-64.0,-189.0,-9.0,-333.0,-19.0,-600.0,-224.0,-720.0,-62.0,2
684,-54.0,-196.0,3.0,-302.0,25.0,-557.0,-193.0,-745.0,-10.0,2
685,-45.0,-206.0,0.0,-258.0,40.0,-512.0,-154.0,-804.0,-29.0,2
686,-34.0,-219.0,4.0,-241.0,49.0,-472.0,-125.0,-845.0,5.0,2
687,-29.0,-230.0,11.0,-211.0,38.0,-440.0,-93.0,-870.0,21.0,2
688,-24.0,-233.0,11.0,-156.0,5.0,-422.0,-71.0,-884.0,6.0,2
689,-20.0,-231.0,9.0,-108.0,-29.0,-417.0,-43.0,-890.0,0.0,2
690,-14.0,-226.0,7.0,-69.0,-59.0,-415.0,-29.0,-873.0,0.0,2
691,0.0,-218.0,-1.0,-40.0,-81.0,-416.0,8.0,-849.0,-35.0,2
692,-1.0,-217.0,-7.0,-34.0,-81.0,-424.0,17.0,-824.0,-59.0,2
693,0.0,-210.0,-8.0,-58.0,-71.0,-437.0,27.0,-826.0,-71.0,2
694,1.0,-213.0,-8.0,-97.0,-64.0,-442.0,27.0,-819.0,-73.0,2
695,4.0,-212.0,0.0,-126.0,-50.0,-448.0,55.0,-804.0,-26.0,2
696,12.0,-201.0,-3.0,-113.0,-37.0,-465.0,90.0,-779.0,-47.0,2
697,14.0,-195.0,-4.0,-100.0,-30.0,-485.0,94.0,-747.0,-58.0,2
698,15.0,-184.0,3.0,-102.0,-26.0,-507.0,92.0,-713.0,-21.0,2
699,8.0,-181.0,-1.0,-91.0,-39.0,-522.0,72.0,-693.0,-23.0,2
700,8.0,-178.0,9.0,-87.0,-57.0,-533.0,59.0,-687.0,-9.0,2
701,6.0,-179.0,9.0,-82.0,-70.0,-548.0,38.0,-683.0,-8.0,2
702,0.0,-176.0,11.0,-75.0,-73.0,-560.0,34.0,-666.0,10.0,2
703,1.0,-165.0,11.0,-60.0,-65.0,-565.0,33.0,-644.0,8.0,2
704,-10.0,-168.0,-6.0,-57.0,-55.0,-563.0,-16.0,-639.0,-44.0,2
705,-20.0,-168.0,-6.0,-112.0,-52.0,-559.0,-54.0,-658.0,-45.0,2
706,-21.0,-175.0,-5.0,-199.0,-64.0,-551.0,-59.0,-694.0,-69.0,2
707,-27.0,-186.0,51.0,-296.0,-70.0,-541.0,-82.0,-691.0,121.0,2
708,-23.0,-174.0,40.0,-224.0,-84.0,-525.0,-67.0,-663.0,124.0,2
709,-34.0,-169.0,31.0,-125.0,-104.0,-521.0,-101.0,-662.0,72.0,2
710,-35.0,-172.0,30.0,-91.0,-136.0,-504.0,-115.0,-665.0,85.0,2
711,-30.0,-174.0,12.0,-87.0,-172.0,-455.0,-91.0,-679.0,39.0,2
712,-23.0,-176.0,11.0,-131.0,-188.0,-406.0,-75.0,-688.0,20.0,2
713,-20.0,-183.0,12.0,-193.0,-191.0,-366.0,-56.0,-712.0,22.0,2
714,-19.0,-184.0,15.0,-229.0,-186.0,-329.0,-47.0,-723.0,28.0,2
715,-22.0,-188.0,15.0,-246.0,-197.0,-290.0,-48.0,-736.0,22.0,2
716,-8.0,-194.0,9.0,-255.0,-217.0,-234.0,-20.0,-748.0,20.0,2
717,-1.0,-197.0,6.0,-261.0,-224.0,-176.0,30.0,-770.0,13.0,2
718,3.0,-200.0,8.0,-270.0,-226.0,-139.0,40.0,-779.0,-2.0,2
719,3.0,-199.0,6.0,-285.0,-232.0,-119.0,43.0,-772.0,-17.0,2
720,2.0,-197.0,0.0,-308.0,-247.0,-104.0,51.0,-774.0,-44.0,2
721,-1.0,-200.0,-5.0,-347.0,-272.0,-82.0,31.0,-784.0,-60.0,2
722,-2.0,-208.0,-7.0,-403.0,-293.0,-54.0,24.0,-807.0,-59.0,2
723,-1.0,-212.0,1.0,-467.0,-309.0,-31.0,27.0,-838.0,-33.0,2
724,-5.0,-227.0,13.0,-525.0,-317.0,-4.0,9.0,-887.0,14.0,2
725,-11.0,-240.0,23.0,-559.0,-316.0,28.0,-20.0,-920.0,57.0,2
726,-22.0,-247.0,35.0,-557.0,-314.0,62.0,-48.0,-954.0,102.0,2
727,-25.0,-253.0,50.0,-532.0,-324.0,102.0,-71.0,-975.0,151.0,2
728,-28.0,-261.0,59.0,-481.0,-344.0,139.0,-78.0,-1003.0,186.0,2
729,-26.0,-268.0,67.0,-416.0,-367.0,171.0,-71.0,-1023.0,216.0,2
730,-32.0,-270.0,72.0,-342.0,-392.0,190.0,-65.0,-1042.0,236.0,2
731,-25.0,-277.0,84.0,-264.0,-426.0,223.0,-60.0,-1065.0,272.0,2
732,-12.0,-283.0,95.0,-179.0,-465.0,254.0,-16.0,-1086.0,342.0,2
733,-10.0,-278.0,101.0,-76.0,-490.0,273.0,1.0,-1077.0,361.0,2
734,-3.0,-285.0,96.0,16.0,-511.0,278.0,9.0,-1083.0,353.0,2
735,0.0,-286.0,91.0,97.0,-530.0,282.0,25.0,-1101.0,316.0,2
736,5.0,-288.0,83.0,176.0,-535.0,281.0,55.0,-1111.0,282.0,2
737,14.0,-286.0,70.0,257.0,-517.0,271.0,88.0,-1112.0,252.0,2
738,19.0,-283.0,64.0,320.0,-490.0,267.0,105.0,-1098.0,228.0,2
739,18.0,-278.0,58.0,361.0,-465.0,265.0,114.0,-1087.0,206.0,2
740,19.0,-275.0,51.0,373.0,-456.0,256.0,106.0,-1073.0,180.0,2
741,17.0,-276.0,47.0,348.0,-450.0,241.0,100.0,-1075.0,151.0,2
742,15.0,-279.0,39.0,291.0,-447.0,219.0,94.0,-1083.0,121.0,2
743,9.0,-282.0,39.0,220.0,-438.0,193.0,85.0,-1103.0,113.0,2
744,4.0,-290.0,34.0,166.0,-426.0,164.0,60.0,-1124.0,108.0,2
745,-2.0,-292.0,42.0,123.0,-414.0,132.0,29.0,-1140.0,114.0,2
746,-4.0,-293.0,41.0,82.0,-401.0,96.0,18.0,-1162.0,128.0,2
747,-9.0,-304.0,44.0,27.0,-385.0,48.0,3.0,-1192.0,150.0,2
748,-17.0,-313.0,55.0,-43.0,-378.0,-14.0,-18.0,-1213.0,175.0,2
749,-24.0,-315.0,61.0,-119.0,-389.0,-87.0,-49.0,-1229.0,205.0,2
750,-23.0,-316.0,67.0,-188.0,-416.0,-147.0,-47.0,-1239.0,230.0,2
751,-11.0,-317.0,68.0,-235.0,-432.0,-181.0,-18.0,-1234.0,233.0,2
752,-12.0,-313.0,66.0,-264.0,-427.0,-198.0,-5.0,-1223.0,224.0,2
753,-10.0,-313.0,67.0,-284.0,-420.0,-203.0,-4.0,-1210.0,223.0,2
754,-13.0,-304.0,66.0,-309.0,-437.0,-196.0,-16.0,-1180.0,225.0,2
755,-12.0,-294.0,66.0,-350.0,-469.0,-182.0,-10.0,-1151.0,231.0,2
756,-11.0,-288.0,71.0,-395.0,-495.0,-162.0,-7.0,-1125.0,250.0,2
757,-16.0,-285.0,74.0,-431.0,-523.0,-137.0,-40.0,-1105.0,260.0,2
758,-27.0,-276.0,84.0,-452.0,-559.0,-108.0,-69.0,-1083.0,284.0,2
759,-31.0,-279.0,88.0,-454.0,-605.0,-84.0,-83.0,-1077.0,307.0,2
760,-31.0,-283.0,89.0,-437.0,-648.0,-67.0,-75.0,-1091.0,322.0,2
761,-16.0,-295.0,83.0,-404.0,-699.0,-60.0,-20.0,-1140.0,289.0,2
762,-3.0,-319.0,45.0,-371.0,-742.0,-77.0,24.0,-1221.0,177.0,2
763,-8.0,-346.0,-14.0,-359.0,-777.0,-112.0,2.0,-1339.0,-37.0,2
764,-11.0,-366.0,-51.0,-423.0,-785.0,-154.0,-20.0,-1414.0,-213.0,2
765,21.0,-391.0,-64.0,-492.0,-730.0,-218.0,63.0,-1498.0,-292.0,2
766,66.0,-405.0,-38.0,-523.0,-594.0,-328.0,262.0,-1558.0,-248.0,2
767,90.0,-412.0,23.0,-483.0,-414.0,-443.0,337.0,-1582.0,43.0,2
768,112.0,-422.0,42.0,-354.0,-286.0,-571.0,469.0,-1603.0,119.0,2
769,143.0,-407.0,42.0,-226.0,-204.0,-703.0,607.0,-1550.0,112.0,2
770,155.0,-379.0,22.0,-95.0,-167.0,-801.0,645.0,-1452.0,30.0,2
771,160.0,-353.0,-10.0,34.0,-120.0,-847.0,649.0,-1343.0,-73.0,2
772,137.0,-316.0,-18.0,156.0,-33.0,-848.0,563.0,-1202.0,-131.0,2
773,110.0,-286.0,-35.0,264.0,49.0,-804.0,460.0,-1090.0,-187.0,2
774,85.0,-263.0,-47.0,341.0,81.0,-729.0,382.0,-1017.0,-221.0,2
775,72.0,-253.0,-48.0,380.0,74.0,-648.0,326.0,-975.0,-238.0,2
776,64.0,-247.0,-58.0,387.0,53.0,-576.0,286.0,-952.0,-264.0,2
777,53.0,-243.0,-72.0,370.0,36.0,-515.0,254.0,-939.0,-306.0,2
778,41.0,-242.0,-82.0,333.0,30.0,-461.0,172.0,-924.0,-404.0,2
779,15.0,-239.0,-111.0,282.0,24.0,-413.0,96.0,-924.0,-495.0,2
780,-1.0,-245.0,-122.0,228.0,19.0,-357.0,25.0,-937.0,-550.0,2
781,-12.0,-244.0,-120.0,204.0,13.0,-311.0,-29.0,-928.0,-531.0,2
782,-25.0,-245.0,-115.0,226.0,0.0,-286.0,-70.0,-927.0,-516.0,2
783,-43.0,-248.0,-105.0,246.0,-24.0,-269.0,-142.0,-959.0,-467.0,2
784,-61.0,-262.0,-104.0,226.0,-64.0,-243.0,-209.0,-1027.0,-463.0,2
785,-73.0,-276.0,-91.0,137.0,-106.0,-217.0,-251.0,-1100.0,-420.0,2
786,-82.0,-297.0,-59.0,-21.0,-152.0,-206.0,-279.0,-1149.0,-302.0,2
787,-80.0,-309.0,-35.0,-121.0,-195.0,-221.0,-277.0,-1179.0,-216.0,2
788,-74.0,-317.0,-20.0,-127.0,-228.0,-255.0,-276.0,-1206.0,-143.0,2
789,-81.0,-322.0,-19.0,-69.0,-240.0,-270.0,-283.0,-1252.0,-119.0,2
790,-76.0,-328.0,-21.0,-16.0,-225.0,-250.0,-280.0,-1275.0,-127.0,2
791,-73.0,-322.0,-18.0,-14.0,-178.0,-206.0,-266.0,-1269.0,-109.0,2
792,-71.0,-314.0,-13.0,-32.0,-122.0,-162.0,-259.0,-1220.0,-98.0,2
793,-69.0,-299.0,-14.0,-30.0,-80.0,-108.0,-241.0,-1155.0,-91.0,2
794,-64.0,-277.0,-31.0,4.0,-55.0,-30.0,-225.0,-1078.0,-122.0,2
795,-51.0,-262.0,-40.0,42.0,-31.0,44.0,-185.0,-1020.0,-187.0,2
796,-40.0,-243.0,-42.0,53.0,3.0,131.0,-144.0,-945.0,-208.0,2
797,-34.0,-224.0,-44.0,41.0,42.0,210.0,-125.0,-880.0,-224.0,2
798,-16.0,-215.0,-45.0,-1.0,75.0,305.0,-57.0,-837.0,-223.0,2
799,6.0,-210.0,-47.0,-56.0,103.0,415.0,29.0,-818.0,-226.0,2
800,31.0,-212.0,-52.0,-132.0,138.0,515.0,150.0,-841.0,-236.0,2
801,47.0,-220.0,-43.0,-226.0,185.0,606.0,214.0,-850.0,-225.0,2
802,59.0,-230.0,-38.0,-301.0,236.0,685.0,246.0,-880.0,-193.0,2
803,59.0,-242.0,-26.0,-332.0,282.0,748.0,264.0,-913.0,-172.0,2
804,63.0,-248.0,-20.0,-325.0,315.0,796.0,273.0,-939.0,-109.0,2
805,62.0,-255.0,-15.0,-276.0,338.0,818.0,270.0,-977.0,-101.0,2
806,63.0,-257.0,-18.0,-222.0,359.0,832.0,273.0,-996.0,-101.0,2
807,61.0,-251.0,-11.0,-181.0,382.0,844.0,264.0,-954.0,-81.0,2
808,64.0,-241.0,-7.0,-128.0,412.0,857.0,273.0,-917.0,-69.0,2
809,64.0,-226.0,-14.0,-67.0,444.0,867.0,281.0,-866.0,-77.0,2
810,60.0,-213.0,-18.0,-31.0,478.0,868.0,269.0,-811.0,-109.0,2
811,58.0,-206.0,-20.0,-29.0,516.0,864.0,246.0,-788.0,-120.0,2
812,48.0,-201.0,-19.0,-59.0,554.0,854.0,207.0,-784.0,-120.0,2
813,34.0,-202.0,-12.0,-101.0,587.0,831.0,153.0,-783.0,-93.0,2
814,23.0,-204.0,-5.0,-111.0,613.0,802.0,117.0,-785.0,-61.0,2
815,20.0,-204.0,0.0,-78.0,633.0,779.0,100.0,-789.0,-37.0,2
816,13.0,-208.0,1.0,-21.0,661.0,755.0,81.0,-788.0,-18.0,2
817,8.0,-208.0,14.0,51.0,695.0,729.0,71.0,-804.0,21.0,2
818,-1.0,-204.0,2.0,137.0,722.0,692.0,32.0,-802.0,-6.0,2
819,-11.0,-197.0,1.0,179.0,758.0,654.0,-11.0,-768.0,-31.0,2
820,-28.0,-188.0,-6.0,180.0,799.0,632.0,-64.0,-745.0,-39.0,2
821,-31.0,-187.0,-8.0,155.0,824.0,610.0,-89.0,-741.0,-66.0,2
822,-46.0,-192.0,-9.0,91.0,852.0,587.0,-154.0,-744.0,-73.0,2
823,-42.0,-193.0,-3.0,10.0,858.0,592.0,-132.0,-754.0,-53.0,2
824,-38.0,-193.0,2.0,-49.0,867.0,601.0,-136.0,-755.0,-40.0,2
825,-50.0,-200.0,15.0,-71.0,895.0,595.0,-171.0,-764.0,17.0,2
826,-67.0,-205.0,19.0,-42.0,907.0,574.0,-222.0,-788.0,43.0,2
827,-70.0,-209.0,19.0,1.0,890.0,540.0,-259.0,-797.0,57.0,2
828,-66.0,-205.0,20.0,36.0,862.0,503.0,-237.0,-799.0,41.0,2
829,-69.0,-191.0,15.0,37.0,849.0,464.0,-235.0,-769.0,27.0,2
830,-66.0,-201.0,18.0,6.0,827.0,464.0,-251.0,-783.0,33.0,2
831,-52.0,-205.0,24.0,-26.0,795.0,485.0,-182.0,-800.0,60.0,2
832,-50.0,-204.0,24.0,-34.0,783.0,487.0,-167.0,-794.0,56.0,2
833,-44.0,-206.0,24.0,-30.0,760.0,488.0,-146.0,-800.0,60.0,2
834,-50.0,-207.0,34.0,-12.0,743.0,447.0,-165.0,-795.0,90.0,2
835,-53.0,-208.0,33.0,45.0,713.0,401.0,-182.0,-800.0,96.0,2
836,-56.0,-207.0,31.0,113.0,680.0,369.0,-190.0,-808.0,89.0,2
837,-60.0,-214.0,31.0,162.0,666.0,344.0,-198.0,-811.0,69.0,2
838,-60.0,-207.0,14.0,172.0,663.0,319.0,-203.0,-820.0,37.0,2
839,-61.0,-211.0,16.0,124.0,656.0,287.0,-203.0,-826.0,38.0,2
840,-63.0,-211.0,20.0,55.0,628.0,233.0,-220.0,-823.0,57.0,2
841,-64.0,-204.0,30.0,0.0,578.0,176.0,-218.0,-803.0,88.0,2
842,-58.0,-205.0,35.0,-7.0,524.0,146.0,-192.0,-792.0,96.0,2
843,-51.0,-203.0,30.0,16.0,493.0,137.0,-177.0,-793.0,72.0,2
844,-49.0,-205.0,27.0,42.0,484.0,128.0,-170.0,-787.0,67.0,2
845,-51.0,-197.0,25.0,48.0,489.0,116.0,-168.0,-787.0,66.0,2
846,-53.0,-196.0,32.0,31.0,493.0,99.0,-182.0,-775.0,85.0,2
847,-50.0,-197.0,33.0,4.0,490.0,86.0,-177.0,-760.0,101.0,2
848,-47.0,-196.0,38.0,-9.0,484.0,84.0,-159.0,-748.0,110.0,2
849,-46.0,-192.0,43.0,-12.0,476.0,82.0,-140.0,-756.0,124.0,2
850,-39.0,-199.0,49.0,-13.0,468.0,78.0,-124.0,-766.0,148.0,2
851,-30.0,-205.0,64.0,-5.0,456.0,75.0,-98.0,-790.0,191.0,2
852,-15.0,-212.0,71.0,27.0,445.0,82.0,-42.0,-810.0,238.0,2
853,-9.0,-224.0,87.0,90.0,444.0,76.0,-15.0,-846.0,310.0,2
854,-27.0,-232.0,115.0,182.0,444.0,57.0,-79.0,-877.0,410.0,2
855,-39.0,-235.0,117.0,330.0,423.0,51.0,-107.0,-895.0,451.0,2
856,-40.0,-237.0,112.0,490.0,405.0,62.0,-126.0,-907.0,413.0,2
857,-49.0,-241.0,97.0,616.0,400.0,51.0,-157.0,-921.0,343.0,2
858,-64.0,-243.0,73.0,713.0,378.0,33.0,-224.0,-927.0,265.0,2
859,-75.0,-241.0,59.0,796.0,356.0,19.0,-259.0,-927.0,198.0,2
860,-73.0,-240.0,44.0,861.0,354.0,4.0,-264.0,-926.0,142.0,2
861,-66.0,-237.0,28.0,887.0,372.0,-15.0,-247.0,-918.0,87.0,2
862,-63.0,-229.0,6.0,834.0,398.0,-32.0,-219.0,-914.0,2.0,2
863,-54.0,-227.0,-15.0,683.0,412.0,-41.0,-189.0,-915.0,-83.0,2
864,-45.0,-235.0,-16.0,460.0,415.0,-38.0,-153.0,-942.0,-95.0,2
865,-43.0,-245.0,1.0,216.0,414.0,-25.0,-135.0,-1002.0,-11.0,2
866,-47.0,-264.0,33.0,21.0,422.0,-6.0,-158.0,-1051.0,108.0,2
867,-61.0,-282.0,69.0,-100.0,433.0,12.0,-210.0,-1112.0,238.0,2
868,-89.0,-296.0,102.0,-155.0,425.0,40.0,-306.0,-1160.0,368.0,2
869,-78.0,-314.0,105.0,-156.0,372.0,87.0,-248.0,-1238.0,370.0,2
870,-72.0,-316.0,105.0,-185.0,282.0,120.0,-235.0,-1244.0,398.0,2
871,-64.0,-320.0,106.0,-195.0,260.0,170.0,-221.0,-1263.0,400.0,2
872,-59.0,-327.0,91.0,-182.0,271.0,241.0,-194.0,-1271.0,347.0,2
873,-52.0,-319.0,83.0,-185.0,275.0,302.0,-176.0,-1260.0,302.0,2
874,-50.0,-311.0,73.0,-198.0,277.0,332.0,-162.0,-1214.0,273.0,2
875,-48.0,-291.0,65.0,-206.0,277.0,326.0,-154.0,-1144.0,222.0,2
876,-49.0,-272.0,54.0,-217.0,279.0,304.0,-157.0,-1074.0,181.0,2
877,-55.0,-263.0,51.0,-245.0,291.0,283.0,-190.0,-1026.0,161.0,2
878,-94.0,-266.0,55.0,-272.0,304.0,264.0,-329.0,-1027.0,164.0,2
879,-154.0,-296.0,42.0,-257.0,276.0,260.0,-543.0,-1132.0,138.0,2
880,-161.0,-331.0,8.0,-185.0,174.0,259.0,-573.0,-1281.0,10.0,2
881,-133.0,-364.0,-75.0,-151.0,59.0,241.0,-487.0,-1441.0,-306.0,2
882,-130.0,-404.0,-107.0,-248.0,17.0,287.0,-467.0,-1577.0,-469.0,2
883,-146.0,-427.0,-66.0,-403.0,7.0,417.0,-520.0,-1663.0,-339.0,2
884,-154.0,-431.0,8.0,-497.0,-12.0,600.0,-555.0,-1695.0,-50.0,2
885,-176.0,-435.0,54.0,-546.0,-19.0,757.0,-634.0,-1695.0,142.0,2
886,-205.0,-437.0,49.0,-535.0,-32.0,883.0,-752.0,-1674.0,162.0,2
887,-192.0,-433.0,39.0,-395.0,-77.0,973.0,-697.0,-1645.0,106.0,2
888,-145.0,-402.0,5.0,-122.0,-116.0,965.0,-528.0,-1538.0,-1.0,2
889,-103.0,-344.0,-21.0,154.0,-112.0,886.0,-377.0,-1320.0,-117.0,2
890,-88.0,-302.0,-30.0,350.0,-58.0,835.0,-327.0,-1146.0,-178.0,2
891,-58.0,-266.0,-37.0,491.0,21.0,801.0,-208.0,-1022.0,-189.0,2
892,-19.0,-240.0,-40.0,597.0,91.0,738.0,-69.0,-903.0,-207.0,2
893,17.0,-207.0,-61.0,690.0,163.0,654.0,90.0,-801.0,-299.0,2
894,33.0,-184.0,-88.0,756.0,266.0,545.0,149.0,-702.0,-390.0,2
895,22.0,-174.0,-126.0,792.0,367.0,427.0,132.0,-659.0,-532.0,2
896,7.0,-167.0,-158.0,769.0,408.0,304.0,54.0,-638.0,-696.0,2
897,-13.0,-162.0,-176.0,690.0,372.0,214.0,-22.0,-658.0,-780.0,2
898,-7.0,-184.0,-185.0,549.0,282.0,193.0,4.0,-743.0,-789.0,2
899,7.0,-224.0,-158.0,336.0,197.0,198.0,52.0,-886.0,-713.0,2
900,18.0,-269.0,-127.0,59.0,159.0,192.0,88.0,-1046.0,-568.0,2
901,18.0,-319.0,-81.0,-238.0,175.0,168.0,87.0,-1230.0,-383.0,2
902,6.0,-371.0,-38.0,-498.0,232.0,125.0,72.0,-1428.0,-218.0,2
903,4.0,-422.0,14.0,-671.0,304.0,62.0,53.0,-1602.0,-22.0,2
904,5.0,-463.0,47.0,-699.0,379.0,-7.0,64.0,-1749.0,117.0,2
905,1.0,-485.0,61.0,-587.0,463.0,-91.0,59.0,-1847.0,194.0,2
906,-12.0,-489.0,62.0,-365.0,539.0,-188.0,13.0,-1878.0,210.0,2
907,-32.0,-481.0,63.0,-90.0,593.0,-261.0,-48.0,-1853.0,184.0,2
908,-40.0,-447.0,46.0,194.0,606.0,-303.0,-98.0,-1715.0,138.0,2
909,-43.0,-401.0,20.0,431.0,543.0,-351.0,-106.0,-1546.0,55.0,2
910,-35.0,-345.0,-11.0,586.0,421.0,-418.0,-92.0,-1339.0,-78.0,2
911,-36.0,-286.0,-53.0,634.0,292.0,-497.0,-93.0,-1138.0,-228.0,2
912,-46.0,-240.0,-80.0,555.0,188.0,-572.0,-137.0,-967.0,-354.0,2
913,-51.0,-213.0,-92.0,360.0,130.0,-623.0,-181.0,-856.0,-421.0,2
914,-57.0,-190.0,-91.0,107.0,119.0,-661.0,-201.0,-774.0,-400.0,2
915,-61.0,-181.0,-72.0,-132.0,133.0,-697.0,-229.0,-715.0,-329.0,2
916,-73.0,-170.0,-41.0,-313.0,164.0,-734.0,-264.0,-674.0,-234.0,2
917,-87.0,-161.0,-36.0,-408.0,200.0,-759.0,-320.0,-641.0,-180.0,2
918,-97.0,-162.0,-26.0,-464.0,231.0,-773.0,-363.0,-629.0,-136.0,2
919,-105.0,-156.0,-18.0,-501.0,235.0,-777.0,-391.0,-604.0,-111.0,2
920,-104.0,-164.0,-9.0,-508.0,215.0,-767.0,-385.0,-631.0,-64.0,2
921,-119.0,-174.0,18.0,-466.0,169.0,-756.0,-439.0,-657.0,42.0,2
922,-124.0,-182.0,29.0,-357.0,93.0,-740.0,-457.0,-702.0,59.0,2
923,-120.0,-200.0,13.0,-249.0,-1.0,-718.0,-452.0,-791.0,28.0,2
924,-113.0,-222.0,14.0,-197.0,-67.0,-682.0,-411.0,-863.0,32.0,2
925,-102.0,-241.0,23.0,-159.0,-125.0,-642.0,-363.0,-922.0,56.0,2
926,-96.0,-241.0,26.0,-97.0,-191.0,-620.0,-340.0,-935.0,70.0,2
927,-82.0,-238.0,16.0,-10.0,-257.0,-611.0,-299.0,-924.0,50.0,2
928,-71.0,-231.0,30.0,66.0,-328.0,-620.0,-251.0,-904.0,67.0,2
929,-55.0,-223.0,25.0,148.0,-405.0,-652.0,-200.0,-857.0,60.0,2
930,-42.0,-211.0,19.0,230.0,-464.0,-693.0,-135.0,-820.0,39.0,2
931,-30.0,-195.0,9.0,299.0,-491.0,-722.0,-85.0,-756.0,17.0,2
932,-12.0,-184.0,4.0,332.0,-508.0,-738.0,-33.0,-702.0,-8.0,2
933,-6.0,-163.0,-3.0,329.0,-515.0,-753.0,5.0,-643.0,-25.0,2
934,-3.0,-152.0,-4.0,303.0,-535.0,-759.0,26.0,-596.0,-57.0,2
935,0.0,-144.0,-16.0,238.0,-574.0,-765.0,21.0,-562.0,-85.0,2
936,-1.0,-137.0,-11.0,133.0,-606.0,-763.0,14.0,-540.0,-75.0,2
937,1.0,-133.0,-8.0,8.0,-620.0,-750.0,30.0,-519.0,-68.0,2
938,1.0,-137.0,-4.0,-92.0,-623.0,-727.0,30.0,-521.0,-36.0,2
939,2.0,-140.0,2.0,-176.0,-624.0,-699.0,38.0,-546.0,-54.0,2
940,8.0,-152.0,11.0,-246.0,-620.0,-656.0,56.0,-576.0,23.0,2
941,11.0,-163.0,29.0,-264.0,-618.0,-617.0,59.0,-603.0,81.0,2
942,6.0,-161.0,36.0,-231.0,-613.0,-581.0,52.0,-624.0,108.0,2
943,18.0,-170.0,45.0,-174.0,-607.0,-536.0,89.0,-644.0,142.0,2
944,33.0,-164.0,48.0,-85.0,-591.0,-518.0,146.0,-613.0,166.0,2
945,24.0,-153.0,43.0,32.0,-561.0,-515.0,117.0,-589.0,131.0,2
946,17.0,-146.0,19.0,93.0,-536.0,-500.0,88.0,-585.0,47.0,2
947,20.0,-145.0,14.0,52.0,-516.0,-477.0,98.0,-571.0,33.0,2
948,25.0,-148.0,12.0,-32.0,-493.0,-457.0,106.0,-579.0,12.0,2
949,32.0,-154.0,20.0,-138.0,-456.0,-426.0,134.0,-605.0,38.0,2
950,36.0,-165.0,29.0,-232.0,-408.0,-400.0,160.0,-644.0,68.0,2
951,35.0,-176.0,33.0,-292.0,-367.0,-377.0,164.0,-682.0,109.0,2
952,39.0,-183.0,39.0,-320.0,-332.0,-346.0,181.0,-716.0,120.0,2
953,45.0,-198.0,44.0,-337.0,-309.0,-315.0,198.0,-764.0,140.0,2
954,39.0,-211.0,62.0,-332.0,-298.0,-292.0,180.0,-796.0,182.0,2
955,29.0,-209.0,70.0,-270.0,-297.0,-278.0,138.0,-778.0,177.0,2
956,7.0,-209.0,67.0,-195.0,-334.0,-302.0,92.0,-796.0,240.0,2
957,2.0,-217.0,71.0,-83.0,-376.0,-270.0,60.0,-820.0,249.0,2
958,0.0,-225.0,70.0,55.0,-391.0,-225.0,31.0,-850.0,244.0,2
959,-11.0,-229.0,64.0,181.0,-394.0,-189.0,5.0,-872.0,216.0,2
960,-23.0,-236.0,57.0,271.0,-408.0,-158.0,-45.0,-887.0,191.0,2
961,-41.0,-236.0,51.0,339.0,-450.0,-133.0,-95.0,-902.0,164.0,2
962,-47.0,-239.0,41.0,386.0,-514.0,-107.0,-144.0,-920.0,122.0,2
963,-51.0,-239.0,33.0,407.0,-569.0,-76.0,-165.0,-930.0,104.0,2
964,-52.0,-238.0,28.0,411.0,-597.0,-48.0,-180.0,-925.0,82.0,2
965,-57.0,-234.0,18.0,390.0,-592.0,-16.0,-196.0,-919.0,41.0,2
966,-56.0,-235.0,11.0,332.0,-571.0,33.0,-182.0,-918.0,14.0,2
967,-42.0,-235.0,-1.0,243.0,-546.0,88.0,-163.0,-926.0,-32.0,2
968,-40.0,-235.0,-11.0,132.0,-528.0,139.0,-120.0,-934.0,-54.0,2
969,-22.0,-243.0,-16.0,22.0,-496.0,172.0,-73.0,-957.0,-98.0,2
970,-2.0,-252.0,-20.0,-75.0,-437.0,192.0,-4.0,-985.0,-121.0,2
971,8.0,-269.0,-17.0,-139.0,-375.0,210.0,56.0,-1031.0,-111.0,2
972,24.0,-281.0,-5.0,-171.0,-329.0,217.0,114.0,-1087.0,-57.0,2
973,38.0,-296.0,18.0,-172.0,-292.0,201.0,175.0,-1152.0,24.0,2
974,46.0,-314.0,42.0,-149.0,-256.0,176.0,213.0,-1216.0,128.0,2
975,56.0,-335.0,64.0,-122.0,-235.0,137.0,261.0,-1294.0,211.0,2
976,64.0,-341.0,78.0,-103.0,-212.0,63.0,298.0,-1345.0,271.0,2
977,67.0,-351.0,82.0,-103.0,-180.0,-33.0,299.0,-1370.0,291.0,2
978,60.0,-352.0,79.0,-114.0,-147.0,-144.0,277.0,-1363.0,279.0,2
979,54.0,-342.0,71.0,-123.0,-115.0,-251.0,247.0,-1333.0,244.0,2
980,51.0,-332.0,61.0,-133.0,-80.0,-326.0,241.0,-1268.0,205.0,2
981,40.0,-307.0,63.0,-153.0,-45.0,-364.0,210.0,-1192.0,210.0,2
982,39.0,-285.0,74.0,-177.0,-33.0,-369.0,184.0,-1119.0,243.0,2
983,22.0,-271.0,64.0,-208.0,-40.0,-366.0,189.0,-1075.0,228.0,2
984,1.0,-274.0,74.0,-273.0,-39.0,-333.0,51.0,-1078.0,266.0,2
985,-16.0,-287.0,96.0,-361.0,-53.0,-290.0,-13.0,-1120.0,337.0,2
986,-31.0,-288.0,97.0,-432.0,-69.0,-259.0,-76.0,-1132.0,341.0,2
987,-42.0,-300.0,107.0,-459.0,-95.0,-229.0,-115.0,-1159.0,385.0,2
988,-22.0,-324.0,101.0,-436.0,-154.0,-217.0,-50.0,-1242.0,380.0,2
989,20.0,-368.0,57.0,-380.0,-230.0,-252.0,124.0,-1393.0,208.0,2
990,10.0,-390.0,-21.0,-329.0,-289.0,-315.0,101.0,-1512.0,-71.0,2
991,-20.0,-417.0,-88.0,-355.0,-324.0,-318.0,-27.0,-1617.0,-372.0,2
992,-19.0,-448.0,-97.0,-468.0,-291.0,-324.0,-57.0,-1737.0,-459.0,2
993,-1.0,-485.0,-31.0,-578.0,-186.0,-433.0,6.0,-1837.0,-252.0,2
994,31.0,-499.0,50.0,-586.0,-74.0,-653.0,174.0,-1902.0,158.0,2
995,68.0,-490.0,95.0,-487.0,-21.0,-883.0,329.0,-1874.0,328.0,2
996,84.0,-463.0,93.0,-337.0,-19.0,-1048.0,372.0,-1755.0,328.0,2
997,78.0,-419.0,63.0,-119.0,-3.0,-1116.0,342.0,-1564.0,206.0,2
998,92.0,-374.0,-3.0,166.0,54.0,-1093.0,409.0,-1424.0,-49.0,2
999,81.0,-327.0,-61.0,382.0,69.0,-1035.0,369.0,-1240.0,-287.0,2
1000,62.0,-276.0,-102.0,543.0,60.0,-947.0,278.0,-1043.0,-444.0,2
1001,63.0,-240.0,-122.0,686.0,79.0,-827.0,283.0,-913.0,-541.0,2
1002,65.0,-213.0,-132.0,758.0,77.0,-715.0,275.0,-815.0,-579.0,2
1003,58.0,-197.0,-150.0,772.0,55.0,-608.0,259.0,-764.0,-655.0,2
1004,44.0,-192.0,-173.0,736.0,48.0,-508.0,195.0,-740.0,-769.0,2
1005,22.0,-203.0,-192.0,674.0,72.0,-415.0,96.0,-790.0,-815.0,2
1006,-1.0,-215.0,-189.0,575.0,87.0,-326.0,18.0,-851.0,-801.0,2
1007,-26.0,-235.0,-154.0,456.0,64.0,-253.0,-84.0,-905.0,-677.0,2
1008,-49.0,-254.0,-122.0,376.0,8.0,-212.0,-168.0,-998.0,-539.0,2
1009,-78.0,-289.0,-96.0,323.0,-79.0,-195.0,-232.0,-1121.0,-446.0,2
1010,-88.0,-312.0,-79.0,237.0,-183.0,-182.0,-286.0,-1219.0,-373.0,2
1011,-94.0,-335.0,-52.0,134.0,-279.0,-169.0,-331.0,-1284.0,-276.0,2
1012,-102.0,-343.0,-37.0,86.0,-346.0,-177.0,-353.0,-1330.0,-203.0,2
1013,-102.0,-343.0,-18.0,93.0,-380.0,-202.0,-362.0,-1331.0,-124.0,2
1014,-103.0,-341.0,0.0,149.0,-400.0,-224.0,-379.0,-1333.0,-71.0,2
1015,-111.0,-334.0,1.0,196.0,-414.0,-215.0,-391.0,-1329.0,-53.0,2
1016,-108.0,-328.0,13.0,190.0,-419.0,-188.0,-391.0,-1293.0,12.0,2
1017,-111.0,-314.0,7.0,166.0,-422.0,-158.0,-412.0,-1240.0,13.0,2
1018,-107.0,-294.0,-7.0,135.0,-393.0,-94.0,-387.0,-1161.0,-59.0,2
1019,-81.0,-282.0,-20.0,83.0,-333.0,3.0,-311.0,-1111.0,-106.0,2
1020,-72.0,-275.0,-27.0,33.0,-270.0,102.0,-254.0,-1066.0,-144.0,2
1021,-61.0,-258.0,-34.0,11.0,-224.0,187.0,-225.0,-1013.0,-180.0,2
1022,-53.0,-242.0,-49.0,3.0,-203.0,264.0,-187.0,-947.0,-222.0,2
1023,-31.0,-237.0,-56.0,-26.0,-191.0,345.0,-109.0,-916.0,-257.0,2
1024,4.0,-235.0,-58.0,-97.0,-175.0,430.0,21.0,-916.0,-272.0,2
1025,29.0,-235.0,-47.0,-203.0,-146.0,502.0,123.0,-914.0,-261.0,2
1026,56.0,-243.0,-37.0,-302.0,-100.0,574.0,230.0,-931.0,-202.0,2
1027,80.0,-249.0,-32.0,-351.0,-40.0,640.0,345.0,-957.0,-160.0,2
1028,98.0,-252.0,-17.0,-344.0,22.0,698.0,405.0,-953.0,-111.0,2
1029,107.0,-258.0,-9.0,-275.0,85.0,749.0,434.0,-959.0,-80.0,2
1030,112.0,-252.0,-4.0,-181.0,147.0,786.0,456.0,-946.0,-51.0,2
1031,117.0,-247.0,6.0,-81.0,213.0,807.0,475.0,-907.0,-23.0,2
1032,118.0,-233.0,2.0,28.0,286.0,812.0,469.0,-864.0,-42.0,2
1033,105.0,-217.0,-18.0,101.0,346.0,819.0,429.0,-839.0,-98.0,2
1034,90.0,-210.0,-27.0,97.0,386.0,846.0,380.0,-807.0,-146.0,2
1035,81.0,-204.0,-26.0,44.0,442.0,870.0,341.0,-797.0,-159.0,2
1036,85.0,-205.0,-29.0,-21.0,504.0,869.0,340.0,-793.0,-167.0,2
1037,66.0,-213.0,-21.0,-71.0,561.0,835.0,304.0,-812.0,-138.0,2
1038,49.0,-218.0,-1.0,-78.0,611.0,804.0,225.0,-820.0,-51.0,2
1039,37.0,-216.0,3.0,0.0,653.0,774.0,183.0,-804.0,-26.0,2
1040,27.0,-205.0,6.0,119.0,702.0,738.0,139.0,-774.0,-10.0,2
1041,8.0,-187.0,11.0,249.0,746.0,705.0,66.0,-704.0,26.0,2
1042,-5.0,-176.0,-10.0,358.0,783.0,690.0,9.0,-679.0,-36.0,2
1043,-18.0,-166.0,-7.0,369.0,849.0,664.0,-47.0,-647.0,-55.0,2
1044,-25.0,-158.0,0.0,324.0,911.0,636.0,-73.0,-635.0,-44.0,2
1045,-33.0,-159.0,-6.0,247.0,927.0,614.0,-99.0,-637.0,-42.0,2
1046,-42.0,-159.0,-3.0,138.0,921.0,586.0,-126.0,-641.0,-50.0,2
1047,-41.0,-163.0,-7.0,10.0,920.0,564.0,-143.0,-647.0,-71.0,2
1048,-45.0,-170.0,-12.0,-141.0,936.0,538.0,-157.0,-667.0,-73.0,2
1049,-50.0,-175.0,-5.0,-306.0,966.0,518.0,-177.0,-688.0,-48.0,2
1050,-59.0,-181.0,4.0,-431.0,1001.0,502.0,-210.0,-704.0,-6.0,2
1051,-78.0,-197.0,21.0,-486.0,1028.0,499.0,-269.0,-743.0,51.0,2
1052,-71.0,-214.0,42.0,-460.0,1013.0,523.0,-260.0,-814.0,124.0,2
1053,-65.0,-220.0,47.0,-369.0,980.0,512.0,-214.0,-851.0,111.0,2
1054,-67.0,-214.0,35.0,-288.0,929.0,475.0,-224.0,-839.0,101.0,2
1055,-61.0,-205.0,41.0,-201.0,871.0,460.0,-201.0,-791.0,115.0,2
1056,-55.0,-197.0,32.0,-82.0,863.0,462.0,-194.0,-752.0,86.0,2
1057,-55.0,-191.0,18.0,7.0,886.0,463.0,-188.0,-749.0,50.0,2
1058,-65.0,-185.0,13.0,24.0,897.0,448.0,-216.0,-730.0,11.0,2
1059,-59.0,-183.0,5.0,-29.0,878.0,438.0,-212.0,-711.0,-12.0,2
1060,-54.0,-172.0,11.0,-122.0,848.0,430.0,-189.0,-671.0,4.0,2
1061,-53.0,-169.0,14.0,-199.0,836.0,426.0,-179.0,-662.0,19.0,2
1062,-56.0,-169.0,16.0,-266.0,830.0,405.0,-191.0,-666.0,26.0,2
1063,-58.0,-174.0,24.0,-328.0,801.0,365.0,-197.0,-672.0,60.0,2
1064,-62.0,-175.0,32.0,-376.0,750.0,311.0,-212.0,-672.0,79.0,2
1065,-65.0,-174.0,34.0,-418.0,695.0,264.0,-226.0,-673.0,85.0,2
1066,-65.0,-178.0,36.0,-454.0,655.0,234.0,-227.0,-686.0,92.0,2
1067,-63.0,-178.0,33.0,-474.0,626.0,217.0,-220.0,-691.0,101.0,2
1068,-64.0,-181.0,35.0,-474.0,611.0,211.0,-216.0,-695.0,106.0,2
1069,-62.0,-177.0,37.0,-457.0,601.0,209.0,-213.0,-696.0,114.0,2
1070,-60.0,-180.0,40.0,-439.0,596.0,202.0,-217.0,-689.0,117.0,2
1071,-62.0,-178.0,33.0,-425.0,591.0,190.0,-218.0,-689.0,109.0,2
1072,-58.0,-181.0,37.0,-418.0,586.0,179.0,-206.0,-696.0,116.0,2
1073,-53.0,-189.0,43.0,-408.0,579.0,166.0,-187.0,-729.0,131.0,2
1074,-54.0,-203.0,64.0,-386.0,570.0,152.0,-187.0,-784.0,196.0,2
1075,-59.0,-222.0,79.0,-322.0,560.0,144.0,-188.0,-841.0,279.0,2
1076,-47.0,-242.0,104.0,-215.0,560.0,137.0,-161.0,-911.0,355.0,2
1077,-41.0,-263.0,112.0,-73.0,564.0,124.0,-123.0,-992.0,412.0,2
1078,-33.0,-285.0,121.0,98.0,563.0,101.0,-95.0,-1075.0,435.0,2
1079,-28.0,-298.0,118.0,299.0,560.0,70.0,-72.0,-1132.0,434.0,2
1080,-27.0,-301.0,110.0,477.0,567.0,38.0,-68.0,-1137.0,395.0,2
1081,-36.0,-298.0,89.0,700.0,586.0,4.0,-94.0,-1118.0,309.0,2
1082,-36.0,-281.0,66.0,891.0,613.0,-29.0,-114.0,-1081.0,215.0,2
1083,-38.0,-260.0,35.0,1016.0,629.0,-53.0,-109.0,-1015.0,112.0,2
1084,-26.0,-238.0,-3.0,1039.0,641.0,-63.0,-75.0,-936.0,-20.0,2
1085,-13.0,-226.0,-29.0,937.0,647.0,-67.0,-24.0,-897.0,-151.0,2
1086,-12.0,-225.0,-48.0,729.0,639.0,-69.0,-15.0,-912.0,-215.0,2
1087,-5.0,-243.0,-55.0,469.0,600.0,-72.0,12.0,-966.0,-263.0,2
1088,-9.0,-255.0,-28.0,185.0,535.0,-84.0,-1.0,-1021.0,-164.0,2
1089,-27.0,-276.0,14.0,-33.0,504.0,-101.0,-71.0,-1076.0,-5.0,2
1090,-64.0,-290.0,48.0,-135.0,501.0,-104.0,-205.0,-1121.0,132.0,2
1091,-103.0,-305.0,69.0,-162.0,486.0,-56.0,-355.0,-1195.0,246.0,2
1092,-135.0,-316.0,85.0,-176.0,442.0,39.0,-499.0,-1257.0,297.0,2
1093,-152.0,-327.0,88.0,-212.0,380.0,150.0,-550.0,-1284.0,310.0,2
1094,-159.0,-329.0,84.0,-264.0,307.0,241.0,-574.0,-1297.0,298.0,2
1095,-156.0,-319.0,78.0,-311.0,226.0,300.0,-565.0,-1271.0,283.0,2
1096,-142.0,-308.0,70.0,-333.0,136.0,333.0,-536.0,-1213.0,250.0,2
1097,-129.0,-286.0,66.0,-332.0,45.0,347.0,-477.0,-1135.0,221.0,2
1098,-120.0,-264.0,58.0,-314.0,-26.0,352.0,-442.0,-1049.0,199.0,2
1099,-109.0,-247.0,55.0,-297.0,-62.0,356.0,-401.0,-975.0,179.0,2
1100,-107.0,-241.0,61.0,-305.0,-72.0,347.0,-383.0,-943.0,191.0,2
1101,-118.0,-242.0,68.0,-329.0,-71.0,334.0,-408.0,-932.0,229.0,2
1102,-149.0,-261.0,72.0,-350.0,-82.0,338.0,-554.0,-1026.0,250.0,2
1103,-175.0,-298.0,44.0,-346.0,-125.0,360.0,-651.0,-1173.0,159.0,2
1104,-170.0,-344.0,-10.0,-338.0,-196.0,383.0,-623.0,-1365.0,-49.0,2
1105,-157.0,-392.0,-67.0,-388.0,-262.0,400.0,-576.0,-1552.0,-301.0,2
1106,-163.0,-438.0,-83.0,-500.0,-312.0,463.0,-575.0,-1707.0,-380.0,2
1107,-150.0,-464.0,-41.0,-589.0,-368.0,591.0,-541.0,-1810.0,-215.0,2
1108,-129.0,-461.0,31.0,-592.0,-414.0,732.0,-474.0,-1798.0,57.0,2
1109,-118.0,-450.0,79.0,-514.0,-408.0,842.0,-436.0,-1711.0,276.0,2
1110,-124.0,-424.0,74.0,-355.0,-398.0,923.0,-427.0,-1633.0,265.0,2
1111,-128.0,-409.0,32.0,-128.0,-398.0,987.0,-470.0,-1577.0,119.0,2
1112,-125.0,-379.0,-14.0,100.0,-366.0,987.0,-460.0,-1476.0,-115.0,2
1113,-72.0,-336.0,-62.0,288.0,-348.0,921.0,-221.0,-1275.0,-303.0,2
1114,-11.0,-302.0,-97.0,412.0,-360.0,877.0,-15.0,-1153.0,-449.0,2
1115,7.0,-281.0,-105.0,477.0,-299.0,824.0,36.0,-1065.0,-478.0,2
1116,2.0,-248.0,-106.0,524.0,-176.0,739.0,30.0,-934.0,-473.0,2
1117,22.0,-222.0,-99.0,560.0,-76.0,678.0,108.0,-831.0,-443.0,2
1118,40.0,-199.0,-109.0,590.0,-2.0,625.0,197.0,-754.0,-467.0,2
1119,61.0,-189.0,-126.0,575.0,73.0,546.0,245.0,-728.0,-542.0,2
1120,41.0,-186.0,-128.0,490.0,172.0,434.0,170.0,-729.0,-578.0,2
1121,4.0,-203.0,-128.0,394.0,250.0,341.0,73.0,-760.0,-576.0,2
1122,-11.0,-229.0,-109.0,332.0,249.0,302.0,22.0,-853.0,-504.0,2
1123,-1.0,-258.0,-102.0,292.0,171.0,301.0,21.0,-973.0,-466.0,2
1124,4.0,-282.0,-94.0,185.0,73.0,295.0,71.0,-1122.0,-435.0,2
1125,16.0,-315.0,-92.0,-2.0,11.0,274.0,91.0,-1245.0,-418.0,2
1126,17.0,-351.0,-79.0,-216.0,21.0,234.0,101.0,-1367.0,-372.0,2
1127,23.0,-383.0,-65.0,-386.0,97.0,175.0,103.0,-1482.0,-305.0,2
1128,24.0,-415.0,-38.0,-476.0,219.0,108.0,121.0,-1591.0,-210.0,2
1129,23.0,-438.0,-7.0,-479.0,355.0,23.0,133.0,-1667.0,-86.0,2
1130,12.0,-446.0,20.0,-380.0,476.0,-79.0,95.0,-1697.0,27.0,2
1131,-5.0,-440.0,40.0,-199.0,552.0,-184.0,29.0,-1684.0,98.0,2
1132,-29.0,-425.0,44.0,14.0,574.0,-272.0,-46.0,-1645.0,121.0,2
1133,-39.0,-400.0,39.0,202.0,534.0,-349.0,-90.0,-1556.0,107.0,2
1134,-42.0,-363.0,17.0,336.0,445.0,-429.0,-105.0,-1391.0,23.0,2
1135,-40.0,-317.0,-17.0,409.0,347.0,-516.0,-108.0,-1236.0,-96.0,2
1136,-46.0,-279.0,-46.0,415.0,271.0,-597.0,-142.0,-1087.0,-216.0,2
1137,-56.0,-245.0,-63.0,361.0,230.0,-672.0,-182.0,-961.0,-296.0,2
1138,-63.0,-215.0,-71.0,258.0,197.0,-747.0,-228.0,-849.0,-331.0,2
1139,-70.0,-192.0,-66.0,125.0,165.0,-816.0,-265.0,-761.0,-319.0,2
1140,-85.0,-175.0,-62.0,-16.0,127.0,-872.0,-307.0,-687.0,-282.0,2
1141,-88.0,-160.0,-55.0,-145.0,95.0,-898.0,-335.0,-649.0,-268.0,2
1142,-91.0,-161.0,-56.0,-278.0,93.0,-897.0,-349.0,-645.0,-266.0,2
1143,-93.0,-164.0,-41.0,-418.0,121.0,-889.0,-344.0,-651.0,-212.0,2
1144,-100.0,-176.0,-15.0,-501.0,162.0,-867.0,-369.0,-668.0,-112.0,2
1145,-110.0,-184.0,3.0,-494.0,170.0,-841.0,-400.0,-703.0,-20.0,2
1146,-117.0,-189.0,19.0,-413.0,127.0,-812.0,-414.0,-725.0,48.0,2
1147,-117.0,-191.0,35.0,-274.0,45.0,-785.0,-403.0,-744.0,90.0,2
1148,-112.0,-199.0,28.0,-113.0,-49.0,-757.0,-405.0,-780.0,57.0,2
1149,-106.0,-209.0,5.0,15.0,-136.0,-718.0,-384.0,-800.0,11.0,2
1150,-95.0,-210.0,-3.0,79.0,-214.0,-678.0,-354.0,-813.0,-34.0,2
1151,-87.0,-205.0,-5.0,91.0,-284.0,-652.0,-323.0,-804.0,-51.0,2
1152,-84.0,-199.0,-12.0,83.0,-355.0,-641.0,-310.0,-784.0,-72.0,2
1153,-74.0,-190.0,-6.0,66.0,-422.0,-641.0,-270.0,-745.0,-63.0,2
1154,-55.0,-184.0,-11.0,82.0,-488.0,-645.0,-200.0,-714.0,-61.0,2
1155,-42.0,-179.0,-18.0,109.0,-543.0,-666.0,-146.0,-682.0,-102.0,2
1156,-26.0,-170.0,-19.0,114.0,-585.0,-687.0,-73.0,-656.0,-116.0,2
1157,-10.0,-162.0,-20.0,113.0,-612.0,-698.0,-26.0,-621.0,-103.0,2
1158,-2.0,-151.0,-16.0,107.0,-616.0,-703.0,13.0,-580.0,-102.0,2
1159,10.0,-144.0,-28.0,94.0,-600.0,-701.0,56.0,-553.0,-136.0,2
1160,12.0,-138.0,-13.0,60.0,-571.0,-701.0,88.0,-524.0,-79.0,2
1161,17.0,-136.0,-12.0,43.0,-566.0,-698.0,100.0,-519.0,-88.0,2
1162,15.0,-139.0,-12.0,3.0,-573.0,-697.0,74.0,-528.0,-70.0,2
1163,23.0,-136.0,-17.0,-54.0,-588.0,-674.0,123.0,-530.0,-97.0,2
1164,37.0,-138.0,-14.0,-147.0,-605.0,-639.0,151.0,-537.0,-94.0,2
1165,42.0,-146.0,-1.0,-242.0,-607.0,-604.0,188.0,-560.0,-49.0,2
1166,39.0,-153.0,1.0,-293.0,-602.0,-575.0,184.0,-590.0,-27.0,2
1167,35.0,-166.0,6.0,-324.0,-597.0,-542.0,157.0,-640.0,-6.0,2
1168,32.0,-171.0,5.0,-340.0,-593.0,-507.0,143.0,-651.0,2.0,2
1169,23.0,-178.0,35.0,-303.0,-583.0,-475.0,119.0,-656.0,102.0,2
1170,23.0,-175.0,20.0,-175.0,-575.0,-444.0,128.0,-660.0,43.0,2
1171,15.0,-172.0,8.0,-62.0,-563.0,-418.0,87.0,-651.0,2.0,2
1172,11.0,-163.0,1.0,-14.0,-555.0,-377.0,59.0,-630.0,-28.0,2
1173,3.0,-158.0,-6.0,-20.0,-540.0,-345.0,39.0,-618.0,-61.0,2
1174,-6.0,-155.0,-17.0,-65.0,-522.0,-323.0,-1.0,-614.0,-83.0,2
1175,-12.0,-157.0,-19.0,-124.0,-502.0,-294.0,-20.0,-627.0,-115.0,2
1176,-8.0,-161.0,-20.0,-221.0,-481.0,-247.0,-17.0,-630.0,-118.0,2
1177,-11.0,-166.0,-9.0,-314.0,-455.0,-195.0,-14.0,-646.0,-77.0,2
1178,-13.0,-175.0,2.0,-375.0,-432.0,-148.0,-17.0,-675.0,-21.0,2
1179,-12.0,-187.0,20.0,-390.0,-421.0,-104.0,-19.0,-704.0,44.0,2
1180,-10.0,-191.0,40.0,-354.0,-422.0,-64.0,-11.0,-731.0,107.0,2
1181,-6.0,-197.0,44.0,-261.0,-440.0,-30.0,12.0,-751.0,147.0,2
1182,-14.0,-210.0,51.0,-152.0,-472.0,4.0,-13.0,-798.0,157.0,2
1183,-31.0,-230.0,57.0,-67.0,-507.0,37.0,-70.0,-873.0,182.0,2
1184,-36.0,-248.0,57.0,-9.0,-550.0,64.0,-107.0,-953.0,199.0,2
1185,-27.0,-267.0,61.0,35.0,-591.0,93.0,-83.0,-1030.0,195.0,2
1186,-21.0,-278.0,61.0,77.0,-628.0,120.0,-68.0,-1066.0,201.0,2
1187,-23.0,-282.0,57.0,152.0,-661.0,138.0,-54.0,-1087.0,193.0,2
1188,-17.0,-286.0,45.0,254.0,-692.0,156.0,-38.0,-1106.0,138.0,2
1189,-10.0,-291.0,32.0,355.0,-717.0,175.0,-14.0,-1115.0,98.0,2
1190,-8.0,-292.0,22.0,436.0,-733.0,183.0,-4.0,-1130.0,58.0,2
1191,-9.0,-296.0,16.0,486.0,-744.0,184.0,0.0,-1138.0,19.0,2
1192,-12.0,-297.0,2.0,495.0,-755.0,180.0,-4.0,-1163.0,-12.0,2
1193,-22.0,-298.0,11.0,442.0,-761.0,173.0,-52.0,-1165.0,2.0,2
1194,-28.0,-305.0,25.0,358.0,-761.0,174.0,-75.0,-1186.0,57.0,2
1195,-39.0,-313.0,42.0,284.0,-769.0,170.0,-108.0,-1219.0,118.0,2
1196,-37.0,-314.0,63.0,230.0,-772.0,169.0,-108.0,-1229.0,200.0,2
1197,-32.0,-321.0,77.0,217.0,-763.0,164.0,-100.0,-1240.0,259.0,2
1198,-29.0,-325.0,89.0,234.0,-743.0,149.0,-83.0,-1262.0,309.0,2
1199,-19.0,-327.0,99.0,255.0,-718.0,113.0,-50.0,-1262.0,354.0,2
1200,-1.0,-322.0,96.0,276.0,-692.0,64.0,43.0,-1266.0,362.0,2
1201,22.0,-323.0,96.0,291.0,-662.0,2.0,123.0,-1259.0,349.0,2
1202,35.0,-322.0,92.0,284.0,-622.0,-69.0,198.0,-1247.0,321.0,2
1203,51.0,-316.0,75.0,248.0,-588.0,-139.0,246.0,-1229.0,263.0,2
1204,57.0,-319.0,68.0,185.0,-549.0,-204.0,277.0,-1214.0,205.0,2
1205,66.0,-304.0,51.0,102.0,-513.0,-258.0,290.0,-1198.0,167.0,2
1206,64.0,-297.0,46.0,15.0,-477.0,-292.0,290.0,-1164.0,154.0,2
1207,64.0,-287.0,51.0,-70.0,-437.0,-298.0,288.0,-1139.0,162.0,2
1208,57.0,-278.0,64.0,-151.0,-391.0,-280.0,267.0,-1100.0,184.0,2
1209,51.0,-272.0,66.0,-232.0,-341.0,-254.0,250.0,-1065.0,212.0,2
1210,38.0,-270.0,75.0,-322.0,-307.0,-224.0,200.0,-1063.0,257.0,2
1211,26.0,-274.0,90.0,-416.0,-293.0,-192.0,151.0,-1066.0,312.0,2
1212,13.0,-275.0,105.0,-489.0,-301.0,-174.0,93.0,-1067.0,382.0,2
1213,-3.0,-272.0,124.0,-523.0,-333.0,-178.0,32.0,-1072.0,456.0,2
1214,-7.0,-276.0,133.0,-498.0,-385.0,-181.0,15.0,-1065.0,495.0,2
1215,11.0,-292.0,116.0,-409.0,-456.0,-175.0,83.0,-1102.0,432.0,2
1216,37.0,-314.0,70.0,-306.0,-516.0,-187.0,176.0,-1189.0,272.0,2
1217,51.0,-352.0,-18.0,-205.0,-539.0,-242.0,257.0,-1338.0,-41.0,2
1218,44.0,-384.0,-123.0,-148.0,-532.0,-273.0,202.0,-1478.0,-468.0,2
1219,22.0,-416.0,-199.0,-196.0,-453.0,-295.0,114.0,-1613.0,-827.0,2
1220,15.0,-442.0,-176.0,-356.0,-258.0,-388.0,55.0,-1708.0,-733.0,2
1221,0.0,-450.0,-39.0,-500.0,11.0,-571.0,18.0,-1721.0,-194.0,2
1222,-4.0,-430.0,92.0,-503.0,187.0,-816.0,41.0,-1652.0,334.0,2
1223,23.0,-412.0,135.0,-408.0,176.0,-1032.0,166.0,-1592.0,495.0,2
1224,63.0,-398.0,97.0,-302.0,50.0,-1147.0,305.0,-1511.0,359.0,2
1225,126.0,-379.0,6.0,-134.0,-25.0,-1191.0,528.0,-1429.0,-3.0,2
1226,146.0,-357.0,-91.0,101.0,1.0,-1185.0,617.0,-1321.0,-427.0,2
1227,97.0,-307.0,-153.0,378.0,136.0,-1105.0,384.0,-1124.0,-664.0,2
1228,44.0,-253.0,-148.0,708.0,332.0,-998.0,225.0,-945.0,-656.0,2
1229,6.0,-214.0,-152.0,944.0,368.0,-900.0,89.0,-829.0,-661.0,2
1230,-9.0,-181.0,-132.0,951.0,239.0,-787.0,11.0,-720.0,-583.0,2
1231,-11.0,-166.0,-124.0,830.0,63.0,-681.0,-25.0,-642.0,-546.0,2
1232,-13.0,-159.0,-126.0,703.0,-20.0,-580.0,-47.0,-629.0,-562.0,2
1233,-14.0,-180.0,-146.0,595.0,1.0,-488.0,-48.0,-735.0,-635.0,2
1234,-28.0,-225.0,-163.0,426.0,62.0,-399.0,-77.0,-883.0,-702.0,2
1235,-30.0,-267.0,-149.0,205.0,130.0,-309.0,-94.0,-1027.0,-660.0,2
1236,-34.0,-306.0,-128.0,28.0,171.0,-258.0,-89.0,-1161.0,-576.0,2
1237,-44.0,-336.0,-106.0,-71.0,154.0,-270.0,-107.0,-1292.0,-499.0,2
1238,-45.0,-364.0,-81.0,-129.0,95.0,-289.0,-132.0,-1397.0,-396.0,2
1239,-51.0,-382.0,-47.0,-137.0,38.0,-293.0,-150.0,-1472.0,-271.0,2
1240,-53.0,-395.0,-16.0,-105.0,7.0,-284.0,-148.0,-1533.0,-144.0,2
1241,-58.0,-397.0,9.0,-51.0,-6.0,-269.0,-177.0,-1534.0,-24.0,2
1242,-63.0,-391.0,37.0,33.0,-17.0,-237.0,-192.0,-1515.0,88.0,2
1243,-63.0,-383.0,41.0,130.0,-38.0,-179.0,-213.0,-1494.0,111.0,2
1244,-62.0,-380.0,42.0,208.0,-67.0,-95.0,-208.0,-1478.0,110.0,2
1245,-63.0,-370.0,27.0,273.0,-76.0,-18.0,-218.0,-1425.0,70.0,2
1246,-62.0,-339.0,11.0,345.0,-46.0,54.0,-229.0,-1318.0,10.0,2
1247,-72.0,-304.0,-18.0,416.0,8.0,128.0,-240.0,-1203.0,-99.0,2
1248,-69.0,-280.0,-48.0,439.0,64.0,217.0,-249.0,-1102.0,-206.0,2
1249,-74.0,-249.0,-65.0,379.0,99.0,324.0,-262.0,-1012.0,-289.0,2
1250,-72.0,-236.0,-72.0,244.0,115.0,439.0,-255.0,-933.0,-326.0,2
1251,-63.0,-223.0,-71.0,73.0,133.0,548.0,-220.0,-888.0,-316.0,2
1252,-43.0,-216.0,-66.0,-89.0,152.0,635.0,-147.0,-858.0,-306.0,2
1253,-25.0,-206.0,-54.0,-215.0,166.0,703.0,-83.0,-803.0,-244.0,2
1254,-4.0,-201.0,-42.0,-290.0,179.0,781.0,0.0,-789.0,-211.0,2
1255,11.0,-203.0,-36.0,-321.0,202.0,859.0,83.0,-767.0,-171.0,2
1256,33.0,-198.0,-26.0,-319.0,235.0,916.0,154.0,-754.0,-145.0,2
1257,48.0,-194.0,-28.0,-300.0,265.0,955.0,220.0,-746.0,-148.0,2
1258,64.0,-197.0,-24.0,-292.0,280.0,972.0,279.0,-749.0,-137.0,2
1259,71.0,-200.0,-16.0,-271.0,300.0,967.0,304.0,-758.0,-87.0,2
1260,79.0,-203.0,-12.0,-217.0,333.0,951.0,326.0,-769.0,-88.0,2
1261,93.0,-205.0,-18.0,-161.0,386.0,917.0,386.0,-779.0,-116.0,2
1262,90.0,-199.0,-19.0,-136.0,445.0,868.0,365.0,-760.0,-117.0,2
1263,75.0,-195.0,-32.0,-135.0,514.0,842.0,328.0,-749.0,-156.0,2
1264,64.0,-187.0,-18.0,-154.0,584.0,812.0,278.0,-721.0,-119.0,2
1265,54.0,-183.0,-11.0,-150.0,651.0,764.0,240.0,-687.0,-82.0,2
1266,45.0,-182.0,-14.0,-125.0,709.0,710.0,210.0,-691.0,-82.0,2
1267,30.0,-183.0,1.0,-108.0,728.0,671.0,141.0,-684.0,-58.0,2
1268,6.0,-186.0,-1.0,-76.0,748.0,652.0,62.0,-708.0,-30.0,2
1269,18.0,-191.0,-6.0,-42.0,749.0,637.0,95.0,-731.0,-51.0,2
1270,10.0,-182.0,-7.0,-46.0,779.0,579.0,69.0,-708.0,-70.0,2
1271,-5.0,-180.0,-2.0,-74.0,838.0,548.0,11.0,-686.0,-44.0,2
1272,-16.0,-181.0,1.0,-97.0,873.0,549.0,-30.0,-697.0,-30.0,2
1273,-21.0,-181.0,26.0,-109.0,899.0,549.0,-62.0,-679.0,43.0,2
1274,-46.0,-171.0,21.0,-58.0,916.0,537.0,-148.0,-655.0,59.0,2
1275,-34.0,-184.0,14.0,0.0,897.0,544.0,-111.0,-711.0,17.0,2
1276,-43.0,-170.0,-14.0,13.0,890.0,518.0,-154.0,-677.0,-77.0,2
1277,-56.0,-166.0,1.0,-89.0,890.0,493.0,-196.0,-643.0,-43.0,2
1278,-60.0,-155.0,-1.0,-192.0,900.0,497.0,-209.0,-617.0,-27.0,2
1279,-56.0,-162.0,0.0,-259.0,920.0,506.0,-198.0,-638.0,-32.0,2
1280,-52.0,-172.0,5.0,-313.0,937.0,499.0,-177.0,-672.0,-12.0,2
1281,-53.0,-176.0,18.0,-355.0,938.0,469.0,-186.0,-680.0,31.0,2
1282,-52.0,-182.0,22.0,-343.0,929.0,440.0,-186.0,-692.0,49.0,2
1283,-57.0,-183.0,16.0,-306.0,927.0,415.0,-197.0,-704.0,29.0,2
1284,-63.0,-186.0,24.0,-274.0,922.0,399.0,-227.0,-721.0,57.0,2
1285,-76.0,-193.0,27.0,-221.0,898.0,386.0,-261.0,-738.0,68.0,2
1286,-70.0,-203.0,22.0,-155.0,846.0,359.0,-251.0,-787.0,50.0,2
1287,-67.0,-201.0,20.0,-109.0,786.0,297.0,-229.0,-794.0,47.0,2
1288,-59.0,-200.0,16.0,-74.0,758.0,230.0,-207.0,-773.0,38.0,2
1289,-54.0,-192.0,16.0,-61.0,749.0,183.0,-196.0,-750.0,26.0,2
1290,-56.0,-184.0,8.0,-70.0,742.0,148.0,-190.0,-733.0,12.0,2
1291,-51.0,-182.0,10.0,-103.0,741.0,122.0,-186.0,-710.0,3.0,2
1292,-49.0,-177.0,12.0,-149.0,736.0,99.0,-169.0,-700.0,14.0,2
1293,-40.0,-176.0,13.0,-191.0,719.0,78.0,-141.0,-683.0,28.0,2
1294,-35.0,-174.0,17.0,-221.0,705.0,63.0,-117.0,-680.0,39.0,2
1295,-34.0,-178.0,19.0,-244.0,702.0,51.0,-115.0,-683.0,48.0,2
1296,-36.0,-186.0,34.0,-268.0,695.0,39.0,-117.0,-720.0,98.0,2
1297,-42.0,-192.0,52.0,-269.0,682.0,30.0,-122.0,-744.0,151.0,2
1298,-42.0,-206.0,64.0,-237.0,660.0,28.0,-136.0,-797.0,212.0,2
1299,-45.0,-226.0,88.0,-163.0,637.0,33.0,-143.0,-860.0,297.0,2
1300,-60.0,-250.0,114.0,-30.0,623.0,36.0,-191.0,-945.0,419.0,2
1301,-58.0,-270.0,127.0,182.0,611.0,30.0,-197.0,-1021.0,485.0,2
1302,-50.0,-278.0,121.0,412.0,598.0,1.0,-177.0,-1058.0,464.0,2
1303,-52.0,-288.0,106.0,618.0,585.0,-39.0,-166.0,-1099.0,384.0,2
1304,-58.0,-286.0,86.0,793.0,586.0,-76.0,-181.0,-1107.0,308.0,2
1305,-64.0,-283.0,73.0,943.0,608.0,-95.0,-221.0,-1099.0,264.0,2
1306,-76.0,-278.0,65.0,1065.0,642.0,-102.0,-256.0,-1068.0,235.0,2
1307,-83.0,-260.0,53.0,1136.0,671.0,-108.0,-286.0,-1037.0,180.0,2
1308,-82.0,-254.0,41.0,1132.0,682.0,-103.0,-282.0,-1013.0,152.0,2
1309,-67.0,-250.0,34.0,1057.0,670.0,-90.0,-227.0,-1004.0,109.0,2
1310,-50.0,-249.0,20.0,924.0,630.0,-78.0,-157.0,-999.0,57.0,2
1311,-24.0,-256.0,18.0,744.0,570.0,-73.0,-62.0,-1020.0,23.0,2
1312,-10.0,-259.0,13.0,555.0,517.0,-81.0,13.0,-1039.0,25.0,2
1313,-6.0,-265.0,29.0,389.0,486.0,-95.0,18.0,-1047.0,43.0,2
1314,-29.0,-259.0,31.0,268.0,469.0,-105.0,-75.0,-1023.0,70.0,2
1315,-71.0,-256.0,36.0,183.0,436.0,-83.0,-225.0,-1016.0,96.0,2
1316,-102.0,-259.0,41.0,95.0,370.0,-21.0,-361.0,-1038.0,126.0,2
1317,-130.0,-272.0,49.0,-17.0,296.0,63.0,-475.0,-1091.0,161.0,2
1318,-143.0,-288.0,56.0,-160.0,222.0,160.0,-516.0,-1167.0,191.0,2
1319,-135.0,-303.0,65.0,-320.0,138.0,252.0,-476.0,-1202.0,221.0,2
1320,-115.0,-307.0,76.0,-447.0,55.0,312.0,-417.0,-1208.0,267.0,2
1321,-101.0,-299.0,88.0,-511.0,7.0,338.0,-370.0,-1170.0,305.0,2
1322,-97.0,-285.0,94.0,-508.0,0.0,348.0,-354.0,-1123.0,331.0,2
1323,-97.0,-271.0,92.0,-459.0,9.0,353.0,-353.0,-1063.0,329.0,2
1324,-96.0,-260.0,81.0,-403.0,14.0,344.0,-342.0,-1034.0,301.0,2
1325,-114.0,-274.0,68.0,-354.0,5.0,322.0,-393.0,-1044.0,257.0,2
1326,-143.0,-306.0,47.0,-313.0,-31.0,296.0,-515.0,-1147.0,170.0,2
1327,-155.0,-343.0,-9.0,-248.0,-85.0,267.0,-569.0,-1307.0,9.0,2
1328,-124.0,-380.0,-98.0,-219.0,-126.0,261.0,-481.0,-1484.0,-435.0,2
1329,-91.0,-417.0,-138.0,-351.0,-133.0,321.0,-308.0,-1660.0,-615.0,2
1330,-74.0,-456.0,-99.0,-554.0,-153.0,463.0,-250.0,-1777.0,-464.0,2
1331,-98.0,-460.0,-2.0,-668.0,-148.0,646.0,-333.0,-1808.0,-76.0,2
1332,-135.0,-465.0,70.0,-696.0,-106.0,831.0,-475.0,-1816.0,210.0,2
1333,-142.0,-472.0,79.0,-641.0,-114.0,976.0,-491.0,-1821.0,282.0,2
1334,-93.0,-459.0,44.0,-473.0,-202.0,1037.0,-318.0,-1762.0,158.0,2
1335,-91.0,-435.0,-20.0,-231.0,-229.0,1013.0,-325.0,-1674.0,-82.0,2
1336,-73.0,-393.0,-55.0,-7.0,-132.0,976.0,-270.0,-1525.0,-250.0,2
1337,-49.0,-346.0,-84.0,184.0,-54.0,928.0,-162.0,-1319.0,-350.0,2
1338,-46.0,-306.0,-87.0,316.0,-30.0,858.0,-146.0,-1183.0,-392.0,2
1339,-45.0,-268.0,-67.0,430.0,8.0,775.0,-156.0,-1043.0,-311.0,2
1340,-25.0,-224.0,-49.0,554.0,60.0,712.0,-75.0,-835.0,-239.0,2
1341,-5.0,-188.0,-61.0,674.0,120.0,667.0,-5.0,-715.0,-289.0,2
1342,0.0,-174.0,-85.0,722.0,202.0,619.0,10.0,-663.0,-389.0,2
1343,-1.0,-168.0,-114.0,678.0,284.0,570.0,8.0,-659.0,-500.0,2
1344,7.0,-174.0,-129.0,573.0,336.0,537.0,60.0,-693.0,-565.0,2
1345,17.0,-196.0,-129.0,476.0,363.0,520.0,94.0,-754.0,-561.0,2
1346,12.0,-222.0,-116.0,406.0,363.0,509.0,90.0,-864.0,-512.0,2
1347,19.0,-252.0,-105.0,310.0,310.0,485.0,131.0,-1010.0,-468.0,2
1348,35.0,-291.0,-92.0,142.0,230.0,414.0,170.0,-1151.0,-425.0,2
1349,41.0,-331.0,-70.0,-64.0,200.0,315.0,179.0,-1260.0,-349.0,2
1350,40.0,-359.0,-43.0,-217.0,249.0,223.0,187.0,-1389.0,-228.0,2
1351,30.0,-384.0,-14.0,-278.0,343.0,126.0,158.0,-1464.0,-108.0,2
1352,25.0,-401.0,9.0,-240.0,422.0,27.0,139.0,-1527.0,-15.0,2
1353,18.0,-406.0,20.0,-131.0,464.0,-84.0,124.0,-1557.0,39.0,2
1354,9.0,-406.0,15.0,4.0,491.0,-204.0,87.0,-1555.0,21.0,2
1355,-21.0,-395.0,8.0,108.0,515.0,-320.0,-21.0,-1534.0,14.0,2
1356,-48.0,-378.0,4.0,170.0,511.0,-403.0,-130.0,-1498.0,-13.0,2
1357,-59.0,-366.0,11.0,184.0,473.0,-443.0,-190.0,-1429.0,0.0,2
1358,-61.0,-337.0,11.0,198.0,408.0,-473.0,-188.0,-1331.0,5.0,2
1359,-63.0,-312.0,2.0,237.0,317.0,-525.0,-198.0,-1221.0,-25.0,2
1360,-67.0,-279.0,-19.0,283.0,207.0,-600.0,-204.0,-1111.0,-94.0,2
1361,-69.0,-243.0,-50.0,305.0,100.0,-687.0,-230.0,-941.0,-228.0,2
1362,-75.0,-213.0,-74.0,269.0,6.0,-762.0,-272.0,-841.0,-328.0,2
1363,-82.0,-184.0,-93.0,155.0,-62.0,-817.0,-312.0,-737.0,-415.0,2
1364,-95.0,-162.0,-91.0,-26.0,-87.0,-849.0,-358.0,-656.0,-409.0,2
1365,-101.0,-143.0,-82.0,-198.0,-75.0,-850.0,-393.0,-574.0,-372.0,2
1366,-105.0,-133.0,-72.0,-332.0,-39.0,-832.0,-399.0,-529.0,-319.0,2
1367,-105.0,-127.0,-50.0,-436.0,2.0,-817.0,-388.0,-511.0,-250.0,2
1368,-98.0,-133.0,-32.0,-506.0,37.0,-810.0,-375.0,-510.0,-180.0,2
1369,-94.0,-136.0,-18.0,-537.0,43.0,-799.0,-353.0,-539.0,-111.0,2
1370,-91.0,-151.0,2.0,-542.0,24.0,-782.0,-332.0,-564.0,-30.0,2
1371,-83.0,-163.0,14.0,-501.0,-14.0,-758.0,-312.0,-606.0,8.0,2
1372,-79.0,-181.0,17.0,-437.0,-65.0,-729.0,-291.0,-707.0,19.0,2
1373,-85.0,-197.0,12.0,-368.0,-116.0,-703.0,-310.0,-781.0,21.0,2
1374,-87.0,-213.0,13.0,-298.0,-171.0,-674.0,-298.0,-833.0,10.0,2
1375,-74.0,-225.0,9.0,-230.0,-241.0,-660.0,-255.0,-876.0,-4.0,2
1376,-57.0,-234.0,5.0,-180.0,-319.0,-667.0,-183.0,-891.0,-28.0,2
1377,-42.0,-225.0,1.0,-152.0,-387.0,-689.0,-139.0,-874.0,-38.0,2
1378,-30.0,-216.0,2.0,-123.0,-443.0,-710.0,-90.0,-844.0,-17.0,2
1379,-26.0,-205.0,1.0,-81.0,-495.0,-718.0,-65.0,-806.0,-31.0,2
1380,-16.0,-197.0,0.0,-53.0,-530.0,-714.0,-33.0,-773.0,-41.0,2
1381,-4.0,-184.0,1.0,-40.0,-552.0,-709.0,-4.0,-734.0,-35.0,2
1382,8.0,-177.0,-5.0,-32.0,-569.0,-704.0,44.0,-688.0,-46.0,2
1383,20.0,-170.0,-3.0,-34.0,-581.0,-704.0,95.0,-654.0,-36.0,2
1384,25.0,-168.0,-4.0,-45.0,-585.0,-702.0,129.0,-642.0,-51.0,2
1385,27.0,-166.0,-7.0,-69.0,-588.0,-688.0,140.0,-645.0,-51.0,2
1386,29.0,-170.0,-1.0,-107.0,-582.0,-665.0,142.0,-653.0,-25.0,2
1387,36.0,-176.0,13.0,-133.0,-580.0,-641.0,165.0,-668.0,20.0,2
1388,32.0,-183.0,19.0,-132.0,-574.0,-625.0,160.0,-686.0,50.0,2
1389,24.0,-186.0,34.0,-103.0,-576.0,-612.0,133.0,-706.0,82.0,2
1390,20.0,-189.0,29.0,-41.0,-589.0,-598.0,117.0,-719.0,68.0,2
1391,15.0,-189.0,27.0,19.0,-603.0,-585.0,97.0,-728.0,75.0,2
1392,7.0,-189.0,28.0,87.0,-617.0,-573.0,59.0,-728.0,73.0,2
1393,9.0,-189.0,19.0,151.0,-629.0,-556.0,60.0,-728.0,45.0,2
1394,10.0,-187.0,41.0,204.0,-636.0,-533.0,67.0,-698.0,117.0,2
1395,3.0,-179.0,21.0,325.0,-643.0,-509.0,41.0,-667.0,59.0,2
1396,-7.0,-167.0,4.0,424.0,-646.0,-483.0,0.0,-640.0,-19.0,2
1397,-14.0,-156.0,-14.0,429.0,-663.0,-446.0,-38.0,-609.0,-89.0,2
1398,-9.0,-149.0,-24.0,337.0,-677.0,-386.0,-33.0,-599.0,-136.0,2
1399,-5.0,-143.0,-20.0,168.0,-652.0,-318.0,-16.0,-576.0,-128.0,2
1400,1.0,-144.0,-8.0,-13.0,-586.0,-266.0,18.0,-563.0,-75.0,2
1401,-7.0,-143.0,16.0,-152.0,-524.0,-214.0,-7.0,-563.0,7.0,2
1402,-11.0,-153.0,24.0,-232.0,-504.0,-164.0,-27.0,-583.0,56.0,2
1403,-20.0,-160.0,22.0,-280.0,-499.0,-107.0,-48.0,-630.0,62.0,2
1404,-24.0,-182.0,39.0,-331.0,-485.0,-48.0,-71.0,-718.0,107.0,2
1405,-20.0,-196.0,47.0,-367.0,-479.0,6.0,-43.0,-780.0,153.0,2
1406,-19.0,-216.0,65.0,-368.0,-480.0,51.0,-39.0,-832.0,200.0,2
1407,-20.0,-228.0,72.0,-332.0,-497.0,93.0,-35.0,-876.0,244.0,2
1408,-18.0,-244.0,80.0,-259.0,-537.0,130.0,-32.0,-918.0,263.0,2
1409,-24.0,-250.0,73.0,-166.0,-586.0,152.0,-48.0,-947.0,262.0,2
1410,-27.0,-253.0,78.0,-64.0,-642.0,167.0,-69.0,-968.0,257.0,2
1411,-22.0,-258.0,86.0,45.0,-700.0,180.0,-55.0,-983.0,301.0,2
1412,-15.0,-262.0,82.0,172.0,-741.0,184.0,-32.0,-987.0,295.0,2
1413,-8.0,-258.0,68.0,299.0,-752.0,192.0,-5.0,-1003.0,242.0,2
1414,0.0,-262.0,47.0,369.0,-740.0,222.0,21.0,-1027.0,174.0,2
1415,5.0,-278.0,32.0,370.0,-700.0,252.0,52.0,-1085.0,86.0,2
1416,11.0,-296.0,25.0,324.0,-640.0,273.0,72.0,-1134.0,60.0,2
1417,8.0,-304.0,23.0,278.0,-588.0,285.0,66.0,-1179.0,49.0,2
1418,4.0,-315.0,26.0,251.0,-540.0,301.0,48.0,-1212.0,40.0,2
1419,2.0,-316.0,14.0,243.0,-493.0,296.0,39.0,-1225.0,28.0,2
1420,-2.0,-318.0,16.0,237.0,-431.0,266.0,3.0,-1223.0,28.0,2
1421,-15.0,-309.0,19.0,227.0,-365.0,229.0,-30.0,-1210.0,41.0,2
1422,-11.0,-307.0,34.0,206.0,-312.0,202.0,-16.0,-1192.0,86.0,2
1423,7.0,-305.0,48.0,194.0,-268.0,170.0,63.0,-1175.0,146.0,2
1424,32.0,-303.0,58.0,188.0,-224.0,122.0,151.0,-1170.0,189.0,2
1425,57.0,-299.0,60.0,167.0,-171.0,60.0,242.0,-1170.0,194.0,2
1426,72.0,-304.0,57.0,110.0,-115.0,-9.0,336.0,-1197.0,186.0,2
1427,84.0,-319.0,55.0,14.0,-59.0,-95.0,361.0,-1242.0,180.0,2
1428,77.0,-322.0,58.0,-108.0,-14.0,-199.0,334.0,-1270.0,187.0,2
1429,65.0,-325.0,59.0,-215.0,18.0,-295.0,287.0,-1263.0,203.0,2
1430,51.0,-320.0,71.0,-287.0,42.0,-354.0,232.0,-1240.0,232.0,2
1431,38.0,-313.0,76.0,-323.0,48.0,-380.0,184.0,-1211.0,268.0,2
1432,23.0,-295.0,75.0,-353.0,38.0,-388.0,145.0,-1158.0,268.0,2
1433,9.0,-289.0,77.0,-417.0,22.0,-374.0,74.0,-1117.0,268.0,2
1434,-18.0,-279.0,85.0,-504.0,3.0,-333.0,2.0,-1102.0,292.0,2
1435,-38.0,-279.0,91.0,-575.0,-24.0,-284.0,-80.0,-1102.0,307.0,2
1436,-61.0,-280.0,101.0,-624.0,-61.0,-251.0,-167.0,-1099.0,370.0,2
1437,-66.0,-278.0,119.0,-641.0,-122.0,-231.0,-223.0,-1093.0,419.0,2
1438,-62.0,-286.0,128.0,-620.0,-204.0,-208.0,-196.0,-1103.0,470.0,2
1439,-44.0,-298.0,127.0,-572.0,-299.0,-204.0,-125.0,-1151.0,482.0,2
1440,9.0,-320.0,85.0,-515.0,-401.0,-212.0,76.0,-1229.0,350.0,2
1441,22.0,-348.0,8.0,-471.0,-484.0,-247.0,150.0,-1345.0,49.0,2
1442,-36.0,-372.0,-84.0,-465.0,-503.0,-263.0,-87.0,-1436.0,-339.0,2
1443,-63.0,-410.0,-142.0,-530.0,-445.0,-222.0,-217.0,-1571.0,-602.0,2
1444,-60.0,-450.0,-119.0,-617.0,-345.0,-273.0,-201.0,-1716.0,-568.0,2
1445,-43.0,-472.0,-30.0,-620.0,-231.0,-446.0,-143.0,-1806.0,-247.0,2
1446,-20.0,-459.0,57.0,-503.0,-126.0,-667.0,-56.0,-1772.0,126.0,2
1447,29.0,-430.0,79.0,-323.0,-91.0,-827.0,141.0,-1630.0,271.0,2
1448,75.0,-397.0,49.0,-126.0,-109.0,-896.0,343.0,-1497.0,137.0,2
1449,141.0,-366.0,-28.0,94.0,-107.0,-910.0,594.0,-1370.0,-161.0,2
1450,164.0,-320.0,-112.0,303.0,-59.0,-854.0,660.0,-1201.0,-494.0,2
1451,132.0,-283.0,-160.0,522.0,89.0,-746.0,526.0,-1051.0,-703.0,2
1452,96.0,-249.0,-171.0,727.0,238.0,-653.0,410.0,-937.0,-760.0,2
1453,64.0,-220.0,-155.0,850.0,228.0,-566.0,306.0,-829.0,-690.0,2
1454,50.0,-196.0,-138.0,907.0,104.0,-482.0,237.0,-745.0,-619.0,2
1455,30.0,-180.0,-137.0,923.0,-5.0,-444.0,142.0,-683.0,-590.0,2
1456,-3.0,-177.0,-145.0,874.0,-55.0,-417.0,18.0,-703.0,-619.0,2
1457,-30.0,-200.0,-147.0,691.0,-81.0,-355.0,-88.0,-812.0,-635.0,2
1458,-49.0,-237.0,-127.0,391.0,-102.0,-302.0,-159.0,-967.0,-534.0,2
1459,-62.0,-271.0,-99.0,97.0,-126.0,-297.0,-215.0,-1076.0,-436.0,2
1460,-64.0,-302.0,-85.0,-90.0,-164.0,-317.0,-211.0,-1179.0,-373.0,2
1461,-65.0,-327.0,-78.0,-152.0,-216.0,-355.0,-222.0,-1266.0,-340.0,2
1462,-65.0,-348.0,-79.0,-127.0,-257.0,-384.0,-233.0,-1350.0,-351.0,2
1463,-78.0,-361.0,-77.0,-83.0,-266.0,-400.0,-254.0,-1404.0,-358.0,2
1464,-75.0,-363.0,-56.0,-82.0,-257.0,-377.0,-267.0,-1416.0,-286.0,2
1465,-77.0,-360.0,-21.0,-98.0,-242.0,-318.0,-273.0,-1398.0,-150.0,2
1466,-77.0,-354.0,4.0,-82.0,-232.0,-238.0,-269.0,-1386.0,-39.0,2
1467,-72.0,-353.0,15.0,-40.0,-235.0,-138.0,-245.0,-1385.0,14.0,2
1468,-58.0,-348.0,7.0,10.0,-245.0,-30.0,-201.0,-1366.0,12.0,2
1469,-44.0,-333.0,1.0,63.0,-226.0,71.0,-145.0,-1287.0,-26.0,2
1470,-26.0,-310.0,-13.0,139.0,-171.0,171.0,-74.0,-1190.0,-78.0,2
1471,-1.0,-282.0,-33.0,238.0,-92.0,278.0,3.0,-1094.0,-166.0,2
1472,13.0,-256.0,-67.0,299.0,0.0,367.0,59.0,-996.0,-284.0,2
1473,7.0,-228.0,-81.0,256.0,89.0,438.0,50.0,-911.0,-353.0,2
1474,7.0,-209.0,-86.0,118.0,170.0,514.0,55.0,-837.0,-380.0,2
1475,6.0,-191.0,-82.0,-67.0,248.0,605.0,48.0,-753.0,-375.0,2
1476,11.0,-188.0,-68.0,-246.0,314.0,712.0,69.0,-735.0,-320.0,2
1477,27.0,-195.0,-57.0,-382.0,360.0,809.0,115.0,-749.0,-268.0,2
1478,36.0,-199.0,-39.0,-468.0,393.0,878.0,172.0,-766.0,-209.0,2
1479,53.0,-204.0,-16.0,-483.0,426.0,917.0,226.0,-772.0,-99.0,2
1480,61.0,-207.0,-6.0,-408.0,464.0,934.0,263.0,-781.0,-62.0,2
1481,59.0,-213.0,-6.0,-292.0,485.0,955.0,262.0,-802.0,-36.0,2
1482,63.0,-222.0,-3.0,-182.0,507.0,983.0,272.0,-842.0,-52.0,2
1483,66.0,-228.0,-9.0,-111.0,544.0,971.0,281.0,-871.0,-74.0,2
1484,57.0,-221.0,-29.0,-77.0,596.0,912.0,267.0,-858.0,-95.0,2
1485,60.0,-219.0,-19.0,-74.0,645.0,863.0,253.0,-842.0,-121.0,2
1486,51.0,-210.0,-19.0,-80.0,695.0,850.0,228.0,-812.0,-116.0,2
1487,52.0,-202.0,-17.0,-51.0,746.0,848.0,224.0,-774.0,-115.0,2
1488,46.0,-190.0,-15.0,0.0,812.0,823.0,194.0,-714.0,-92.0,2
1489,19.0,-175.0,-11.0,70.0,875.0,798.0,111.0,-659.0,-67.0,2
1490,30.0,-170.0,-19.0,128.0,893.0,777.0,130.0,-650.0,-125.0,2
1491,15.0,-169.0,-17.0,135.0,937.0,714.0,73.0,-654.0,-115.0,2
1492,4.0,-175.0,-18.0,115.0,1005.0,663.0,45.0,-679.0,-99.0,2
1493,-10.0,-174.0,-16.0,89.0,1048.0,621.0,-14.0,-680.0,-86.0,2
1494,-36.0,-175.0,-13.0,50.0,1069.0,580.0,-99.0,-679.0,-85.0,2
1495,-42.0,-188.0,4.0,-25.0,1053.0,581.0,-153.0,-714.0,-31.0,2
1496,-30.0,-184.0,17.0,-69.0,1017.0,591.0,-89.0,-719.0,39.0,2
1497,-31.0,-174.0,22.0,-54.0,1028.0,545.0,-99.0,-665.0,60.0,2
1498,-32.0,-174.0,24.0,-25.0,1037.0,509.0,-108.0,-670.0,37.0,2
1499,-42.0,-175.0,22.0,16.0,1049.0,479.0,-140.0,-674.0,50.0,2
1500,-40.0,-171.0,3.0,58.0,1049.0,466.0,-146.0,-672.0,8.0,2
1501,-41.0,-174.0,0.0,33.0,1036.0,446.0,-132.0,-677.0,-33.0,2
1502,-52.0,-166.0,-3.0,-27.0,1044.0,416.0,-207.0,-655.0,-61.0,2
1503,-63.0,-170.0,1.0,-90.0,1080.0,418.0,-239.0,-669.0,-38.0,2
1504,-75.0,-179.0,10.0,-152.0,1067.0,423.0,-259.0,-691.0,9.0,2
1505,-78.0,-185.0,24.0,-171.0,1013.0,423.0,-265.0,-723.0,64.0,2
1506,-78.0,-194.0,31.0,-134.0,962.0,419.0,-256.0,-744.0,96.0,2
1507,-63.0,-194.0,36.0,-59.0,920.0,396.0,-225.0,-751.0,103.0,2
1508,-71.0,-190.0,35.0,27.0,896.0,378.0,-261.0,-735.0,107.0,2
1509,-75.0,-186.0,29.0,78.0,853.0,371.0,-261.0,-711.0,87.0,2
1510,-73.0,-181.0,25.0,107.0,800.0,332.0,-252.0,-711.0,66.0,2
1511,-74.0,-180.0,20.0,102.0,760.0,270.0,-263.0,-702.0,43.0,2
1512,-77.0,-177.0,18.0,66.0,725.0,223.0,-276.0,-696.0,48.0,2
1513,-78.0,-176.0,21.0,18.0,696.0,191.0,-279.0,-676.0,62.0,2
1514,-76.0,-169.0,28.0,-25.0,669.0,171.0,-276.0,-656.0,68.0,2
1515,-72.0,-167.0,25.0,-47.0,644.0,159.0,-262.0,-648.0,58.0,2
1516,-68.0,-168.0,20.0,-69.0,614.0,142.0,-249.0,-661.0,48.0,2
1517,-69.0,-171.0,20.0,-93.0,592.0,118.0,-243.0,-666.0,56.0,2
1518,-64.0,-180.0,33.0,-105.0,569.0,109.0,-232.0,-685.0,94.0,2
1519,-65.0,-195.0,48.0,-89.0,550.0,110.0,-223.0,-735.0,148.0,2
1520,-64.0,-213.0,72.0,-34.0,530.0,113.0,-229.0,-803.0,210.0,2
1521,-59.0,-237.0,85.0,55.0,518.0,112.0,-205.0,-881.0,289.0,2
1522,-46.0,-260.0,98.0,172.0,520.0,96.0,-162.0,-953.0,344.0,2
1523,-39.0,-283.0,101.0,337.0,521.0,69.0,-115.0,-1056.0,354.0,2
1524,-35.0,-295.0,94.0,550.0,522.0,34.0,-107.0,-1115.0,340.0,2
1525,-30.0,-303.0,81.0,780.0,533.0,-1.0,-106.0,-1140.0,296.0,2
1526,-40.0,-293.0,65.0,985.0,565.0,-33.0,-119.0,-1135.0,226.0,2
1527,-46.0,-285.0,57.0,1135.0,619.0,-56.0,-148.0,-1109.0,196.0,2
1528,-48.0,-271.0,51.0,1222.0,676.0,-62.0,-152.0,-1067.0,171.0,2
1529,-37.0,-260.0,47.0,1235.0,715.0,-52.0,-109.0,-1032.0,144.0,2
1530,-19.0,-249.0,42.0,1170.0,722.0,-53.0,-64.0,-986.0,137.0,2
1531,-9.0,-245.0,28.0,1049.0,702.0,-73.0,-5.0,-974.0,80.0,2
1532,3.0,-246.0,21.0,873.0,670.0,-107.0,46.0,-974.0,52.0,2
1533,10.0,-250.0,25.0,675.0,626.0,-129.0,80.0,-984.0,68.0,2
1534,0.0,-250.0,32.0,495.0,579.0,-135.0,37.0,-1008.0,95.0,2
1535,-31.0,-256.0,44.0,340.0,545.0,-120.0,-92.0,-1018.0,139.0,2
1536,-79.0,-263.0,57.0,218.0,521.0,-84.0,-288.0,-1054.0,201.0,2
1537,-133.0,-277.0,72.0,107.0,494.0,-19.0,-482.0,-1112.0,249.0,2
1538,-171.0,-296.0,79.0,-21.0,426.0,65.0,-629.0,-1198.0,267.0,2
1539,-189.0,-315.0,83.0,-183.0,329.0,162.0,-692.0,-1266.0,290.0,2
1540,-185.0,-329.0,86.0,-325.0,235.0,251.0,-687.0,-1312.0,297.0,2
1541,-180.0,-333.0,82.0,-408.0,156.0,311.0,-673.0,-1314.0,287.0,2
1542,-173.0,-326.0,76.0,-413.0,92.0,341.0,-640.0,-1263.0,274.0,2
1543,-169.0,-303.0,72.0,-362.0,35.0,352.0,-614.0,-1180.0,241.0,2
1544,-155.0,-276.0,55.0,-304.0,-11.0,350.0,-573.0,-1093.0,183.0,2
1545,-147.0,-255.0,52.0,-287.0,-43.0,345.0,-551.0,-1006.0,174.0,2
1546,-175.0,-260.0,57.0,-294.0,-59.0,346.0,-638.0,-1029.0,180.0,2
1547,-211.0,-293.0,37.0,-288.0,-106.0,352.0,-777.0,-1135.0,146.0,2
1548,-191.0,-330.0,-13.0,-258.0,-211.0,361.0,-730.0,-1291.0,-29.0,2
1549,-144.0,-359.0,-61.0,-334.0,-290.0,366.0,-551.0,-1419.0,-260.0,2
1550,-126.0,-401.0,-48.0,-523.0,-332.0,425.0,-435.0,-1555.0,-270.0,2
1551,-113.0,-434.0,22.0,-643.0,-399.0,526.0,-391.0,-1669.0,-22.0,2
1552,-111.0,-434.0,112.0,-621.0,-461.0,622.0,-395.0,-1676.0,324.0,2
1553,-102.0,-426.0,142.0,-498.0,-483.0,712.0,-369.0,-1644.0,524.0,2
1554,-97.0,-422.0,106.0,-327.0,-500.0,789.0,-344.0,-1610.0,443.0,2
1555,-109.0,-402.0,47.0,-130.0,-516.0,837.0,-375.0,-1549.0,159.0,2
1556,-136.0,-384.0,-2.0,72.0,-484.0,849.0,-506.0,-1484.0,-30.0,2
1557,-140.0,-355.0,-26.0,243.0,-447.0,832.0,-506.0,-1359.0,-143.0,2
1558,-96.0,-306.0,-48.0,379.0,-475.0,798.0,-344.0,-1186.0,-228.0,2
1559,-55.0,-272.0,-69.0,456.0,-514.0,750.0,-207.0,-1034.0,-312.0,2
1560,-36.0,-243.0,-84.0,495.0,-453.0,694.0,-156.0,-924.0,-386.0,2
1561,-25.0,-221.0,-89.0,514.0,-301.0,666.0,-99.0,-846.0,-402.0,2
1562,-4.0,-209.0,-104.0,530.0,-141.0,666.0,-15.0,-816.0,-445.0,2
1563,21.0,-207.0,-131.0,507.0,-22.0,659.0,95.0,-814.0,-553.0,2
1564,40.0,-221.0,-151.0,414.0,45.0,632.0,173.0,-862.0,-653.0,2
1565,59.0,-239.0,-159.0,269.0,82.0,607.0,246.0,-922.0,-700.0,2
1566,75.0,-258.0,-145.0,128.0,131.0,585.0,311.0,-1017.0,-614.0,2
1567,81.0,-290.0,-100.0,38.0,183.0,566.0,330.0,-1121.0,-443.0,2
1568,71.0,-320.0,-59.0,6.0,186.0,544.0,328.0,-1239.0,-295.0,2
1569,79.0,-351.0,-46.0,-4.0,140.0,515.0,359.0,-1372.0,-222.0,2
1570,82.0,-375.0,-35.0,-36.0,118.0,458.0,361.0,-1460.0,-187.0,2
1571,83.0,-399.0,-22.0,-66.0,157.0,387.0,353.0,-1527.0,-139.0,2
1572,76.0,-408.0,-14.0,-65.0,233.0,305.0,334.0,-1572.0,-110.0,2
1573,67.0,-412.0,-11.0,-38.0,313.0,202.0,302.0,-1584.0,-85.0,2
1574,53.0,-402.0,-4.0,23.0,371.0,81.0,256.0,-1548.0,-80.0,2
1575,33.0,-382.0,-5.0,108.0,396.0,-51.0,197.0,-1483.0,-56.0,2
1576,12.0,-363.0,-6.0,204.0,391.0,-185.0,121.0,-1419.0,-63.0,2
1577,-1.0,-339.0,-15.0,254.0,358.0,-309.0,39.0,-1325.0,-98.0,2
1578,-12.0,-313.0,-24.0,237.0,309.0,-408.0,1.0,-1233.0,-133.0,2
1579,-25.0,-294.0,-32.0,171.0,268.0,-505.0,-62.0,-1142.0,-167.0,2
1580,-43.0,-261.0,-32.0,95.0,254.0,-597.0,-135.0,-1034.0,-182.0,2
1581,-51.0,-234.0,-48.0,42.0,263.0,-674.0,-176.0,-913.0,-211.0,2
1582,-62.0,-206.0,-55.0,5.0,281.0,-737.0,-210.0,-823.0,-240.0,2
1583,-74.0,-187.0,-61.0,-50.0,297.0,-790.0,-267.0,-757.0,-278.0,2
1584,-90.0,-180.0,-56.0,-134.0,309.0,-827.0,-321.0,-711.0,-261.0,2
1585,-101.0,-178.0,-55.0,-236.0,320.0,-843.0,-377.0,-701.0,-266.0,2
1586,-111.0,-180.0,-42.0,-367.0,341.0,-842.0,-416.0,-700.0,-209.0,2
1587,-114.0,-180.0,-12.0,-469.0,354.0,-831.0,-430.0,-688.0,-80.0,2
1588,-111.0,-176.0,9.0,-493.0,337.0,-813.0,-410.0,-678.0,1.0,2
1589,-104.0,-182.0,18.0,-453.0,286.0,-796.0,-385.0,-700.0,38.0,2
1590,-107.0,-185.0,26.0,-385.0,217.0,-789.0,-383.0,-716.0,64.0,2
1591,-106.0,-188.0,33.0,-296.0,141.0,-771.0,-381.0,-728.0,84.0,2
1592,-109.0,-198.0,27.0,-196.0,61.0,-736.0,-375.0,-739.0,83.0,2
1593,-97.0,-195.0,19.0,-108.0,-13.0,-695.0,-347.0,-749.0,49.0,2
1594,-87.0,-195.0,0.0,-53.0,-76.0,-670.0,-312.0,-779.0,-14.0,2
1595,-81.0,-197.0,6.0,-57.0,-135.0,-672.0,-285.0,-766.0,-2.0,2
1596,-76.0,-188.0,1.0,-63.0,-208.0,-678.0,-260.0,-753.0,-23.0,2
1597,-68.0,-186.0,-5.0,-85.0,-288.0,-682.0,-237.0,-750.0,-49.0,2
1598,-60.0,-184.0,-19.0,-149.0,-354.0,-680.0,-210.0,-726.0,-100.0,2
1599,-44.0,-178.0,0.0,-237.0,-404.0,-677.0,-138.0,-688.0,-41.0,2
1600,-32.0,-174.0,5.0,-261.0,-462.0,-678.0,-83.0,-653.0,-19.0,2
1601,-18.0,-165.0,-3.0,-239.0,-498.0,-684.0,-45.0,-631.0,-42.0,2
1602,-11.0,-153.0,-4.0,-220.0,-510.0,-705.0,-30.0,-604.0,-53.0,2
1603,-1.0,-152.0,-5.0,-216.0,-526.0,-725.0,0.0,-583.0,-42.0,2
1604,1.0,-148.0,-1.0,-220.0,-552.0,-743.0,26.0,-578.0,-36.0,2
1605,1.0,-153.0,5.0,-245.0,-577.0,-751.0,44.0,-581.0,-12.0,2
1606,5.0,-161.0,14.0,-276.0,-590.0,-746.0,44.0,-619.0,11.0,2
1607,7.0,-168.0,26.0,-293.0,-602.0,-724.0,57.0,-635.0,51.0,2
1608,9.0,-176.0,30.0,-280.0,-618.0,-697.0,65.0,-661.0,73.0,2
1609,2.0,-185.0,30.0,-248.0,-631.0,-664.0,50.0,-704.0,89.0,2
1610,0.0,-193.0,66.0,-183.0,-649.0,-629.0,31.0,-709.0,220.0,2
1611,-1.0,-184.0,46.0,-26.0,-684.0,-588.0,34.0,-708.0,138.0,2
1612,0.0,-177.0,33.0,91.0,-712.0,-565.0,42.0,-691.0,91.0,2
1613,5.0,-170.0,6.0,127.0,-744.0,-559.0,39.0,-660.0,13.0,2
1614,0.0,-158.0,9.0,85.0,-761.0,-539.0,41.0,-650.0,17.0,2
1615,7.0,-171.0,5.0,27.0,-778.0,-492.0,55.0,-669.0,9.0,2
1616,11.0,-181.0,11.0,-22.0,-789.0,-442.0,69.0,-686.0,12.0,2
1617,6.0,-185.0,22.0,-56.0,-795.0,-402.0,47.0,-707.0,41.0,2
1618,0.0,-188.0,23.0,-56.0,-803.0,-355.0,27.0,-728.0,49.0,2
1619,2.0,-201.0,18.0,-42.0,-789.0,-287.0,32.0,-760.0,40.0,2
1620,6.0,-206.0,30.0,-27.0,-750.0,-229.0,56.0,-784.0,74.0,2
1621,3.0,-205.0,38.0,6.0,-716.0,-193.0,42.0,-775.0,102.0,2
1622,1.0,-196.0,40.0,48.0,-696.0,-163.0,34.0,-751.0,109.0,2
1623,4.0,-189.0,39.0,83.0,-682.0,-125.0,31.0,-738.0,117.0,2
1624,4.0,-186.0,39.0,109.0,-664.0,-91.0,55.0,-722.0,112.0,2
1625,5.0,-186.0,43.0,122.0,-640.0,-61.0,50.0,-722.0,145.0,2
1626,8.0,-189.0,44.0,142.0,-626.0,-30.0,61.0,-737.0,148.0,2
1627,1.0,-200.0,48.0,160.0,-621.0,16.0,46.0,-773.0,158.0,2
1628,2.0,-214.0,50.0,182.0,-630.0,83.0,38.0,-823.0,162.0,2
1629,10.0,-225.0,49.0,219.0,-640.0,135.0,70.0,-856.0,159.0,2
1630,4.0,-236.0,51.0,284.0,-632.0,163.0,52.0,-887.0,168.0,2
1631,1.0,-239.0,42.0,362.0,-627.0,184.0,37.0,-918.0,133.0,2
1632,15.0,-244.0,28.0,414.0,-625.0,212.0,63.0,-939.0,84.0,2
1633,18.0,-247.0,25.0,412.0,-595.0,240.0,103.0,-956.0,58.0,2
1634,18.0,-255.0,25.0,370.0,-546.0,246.0,95.0,-1002.0,49.0,2
1635,3.0,-265.0,30.0,292.0,-521.0,241.0,73.0,-1028.0,77.0,2
1636,-2.0,-273.0,38.0,210.0,-526.0,230.0,27.0,-1083.0,100.0,2
1637,-16.0,-291.0,38.0,134.0,-535.0,208.0,-33.0,-1130.0,107.0,2
1638,-28.0,-302.0,36.0,66.0,-517.0,187.0,-68.0,-1169.0,113.0,2
1639,-31.0,-309.0,36.0,18.0,-469.0,176.0,-97.0,-1192.0,107.0,2
1640,-34.0,-311.0,37.0,-17.0,-420.0,165.0,-103.0,-1214.0,115.0,2
1641,-21.0,-312.0,44.0,-52.0,-371.0,144.0,-67.0,-1215.0,137.0,2
1642,-1.0,-311.0,49.0,-97.0,-316.0,103.0,39.0,-1218.0,174.0,2
1643,28.0,-311.0,61.0,-161.0,-285.0,38.0,152.0,-1222.0,202.0,2
1644,54.0,-320.0,69.0,-251.0,-283.0,-45.0,254.0,-1262.0,224.0,2
1645,76.0,-333.0,62.0,-353.0,-286.0,-146.0,338.0,-1291.0,215.0,2
1646,86.0,-339.0,58.0,-445.0,-288.0,-246.0,376.0,-1321.0,202.0,2
1647,89.0,-343.0,63.0,-500.0,-270.0,-311.0,381.0,-1327.0,214.0,2
1648,79.0,-344.0,64.0,-489.0,-234.0,-345.0,358.0,-1326.0,197.0,2
1649,74.0,-331.0,53.0,-426.0,-181.0,-367.0,327.0,-1266.0,180.0,2
1650,63.0,-311.0,61.0,-355.0,-126.0,-368.0,290.0,-1202.0,195.0,2
1651,48.0,-293.0,65.0,-306.0,-107.0,-346.0,239.0,-1143.0,220.0,2
1652,33.0,-283.0,72.0,-298.0,-116.0,-312.0,192.0,-1108.0,242.0,2
1653,21.0,-278.0,81.0,-330.0,-132.0,-270.0,119.0,-1107.0,278.0,2
1654,2.0,-289.0,88.0,-377.0,-149.0,-225.0,47.0,-1131.0,321.0,2
1655,-16.0,-301.0,106.0,-436.0,-180.0,-200.0,-31.0,-1176.0,384.0,2
1656,-24.0,-319.0,114.0,-479.0,-237.0,-179.0,-39.0,-1232.0,414.0,2
1657,-14.0,-332.0,84.0,-468.0,-310.0,-179.0,26.0,-1297.0,346.0,2
1658,7.0,-360.0,29.0,-427.0,-358.0,-238.0,88.0,-1384.0,138.0,2
1659,0.0,-382.0,-51.0,-417.0,-385.0,-278.0,46.0,-1467.0,-156.0,2
1660,-9.0,-409.0,-109.0,-495.0,-372.0,-289.0,-1.0,-1579.0,-440.0,2
1661,-17.0,-445.0,-112.0,-634.0,-291.0,-335.0,-43.0,-1707.0,-541.0,2
1662,-24.0,-473.0,-48.0,-736.0,-152.0,-450.0,-71.0,-1794.0,-349.0,2
1663,2.0,-477.0,28.0,-684.0,-24.0,-602.0,23.0,-1806.0,58.0,2
1664,34.0,-463.0,69.0,-484.0,34.0,-771.0,191.0,-1742.0,215.0,2
1665,63.0,-427.0,60.0,-244.0,44.0,-906.0,286.0,-1627.0,201.0,2
1666,91.0,-394.0,20.0,-21.0,36.0,-971.0,399.0,-1505.0,58.0,2
1667,109.0,-357.0,-38.0,161.0,40.0,-971.0,458.0,-1386.0,-172.0,2
1668,86.0,-317.0,-85.0,290.0,87.0,-922.0,374.0,-1211.0,-380.0,2
1669,63.0,-283.0,-111.0,405.0,165.0,-840.0,296.0,-1096.0,-493.0,2
1670,51.0,-258.0,-112.0,498.0,180.0,-758.0,252.0,-997.0,-506.0,2
1671,37.0,-240.0,-103.0,557.0,111.0,-689.0,199.0,-918.0,-464.0,2
1672,16.0,-224.0,-105.0,577.0,31.0,-619.0,114.0,-860.0,-469.0,2
1673,-6.0,-213.0,-117.0,568.0,-15.0,-536.0,11.0,-817.0,-511.0,2
1674,-26.0,-209.0,-130.0,549.0,-45.0,-432.0,-71.0,-809.0,-577.0,2
1675,-37.0,-210.0,-143.0,543.0,-71.0,-323.0,-133.0,-807.0,-619.0,2
1676,-51.0,-207.0,-144.0,555.0,-79.0,-235.0,-178.0,-798.0,-629.0,2
1677,-68.0,-210.0,-146.0,557.0,-78.0,-178.0,-243.0,-820.0,-630.0,2
1678,-80.0,-225.0,-148.0,491.0,-86.0,-117.0,-279.0,-901.0,-624.0,2
1679,-89.0,-243.0,-128.0,311.0,-113.0,-54.0,-306.0,-1003.0,-548.0,2
1680,-79.0,-277.0,-103.0,95.0,-162.0,-38.0,-279.0,-1100.0,-463.0,2
1681,-68.0,-310.0,-86.0,-87.0,-209.0,-86.0,-234.0,-1211.0,-399.0,2
1682,-67.0,-339.0,-58.0,-218.0,-251.0,-155.0,-226.0,-1328.0,-289.0,2
1683,-65.0,-363.0,-25.0,-279.0,-266.0,-182.0,-228.0,-1402.0,-155.0,2
1684,-64.0,-375.0,8.0,-265.0,-250.0,-173.0,-223.0,-1449.0,-20.0,2
1685,-64.0,-377.0,35.0,-202.0,-223.0,-163.0,-217.0,-1455.0,98.0,2
1686,-68.0,-373.0,45.0,-108.0,-207.0,-158.0,-221.0,-1418.0,139.0,2
1687,-57.0,-344.0,44.0,6.0,-197.0,-120.0,-193.0,-1349.0,129.0,2
1688,-38.0,-323.0,32.0,145.0,-163.0,-33.0,-139.0,-1236.0,66.0,2
1689,-25.0,-287.0,-9.0,290.0,-85.0,83.0,-87.0,-1125.0,-56.0,2
1690,-17.0,-262.0,-35.0,385.0,17.0,197.0,-53.0,-1037.0,-175.0,2
1691,-13.0,-237.0,-58.0,399.0,101.0,279.0,-37.0,-930.0,-259.0,2
1692,0.0,-215.0,-76.0,338.0,145.0,350.0,12.0,-856.0,-322.0,2
1693,20.0,-199.0,-81.0,208.0,173.0,425.0,83.0,-798.0,-354.0,2
1694,38.0,-189.0,-79.0,40.0,218.0,509.0,157.0,-757.0,-352.0,2
1695,49.0,-192.0,-61.0,-121.0,283.0,595.0,198.0,-726.0,-298.0,2
1696,53.0,-195.0,-52.0,-241.0,355.0,685.0,234.0,-748.0,-251.0,2
1697,62.0,-205.0,-44.0,-319.0,415.0,761.0,268.0,-795.0,-216.0,2
1698,67.0,-220.0,-28.0,-370.0,463.0,812.0,296.0,-837.0,-151.0,2
1699,69.0,-233.0,-1.0,-377.0,494.0,824.0,301.0,-872.0,-67.0,2
1700,59.0,-246.0,16.0,-314.0,515.0,822.0,276.0,-897.0,-4.0,2
1701,66.0,-245.0,10.0,-204.0,526.0,829.0,293.0,-916.0,7.0,2
1702,71.0,-241.0,1.0,-100.0,565.0,811.0,305.0,-910.0,-24.0,2
1703,66.0,-233.0,4.0,-22.0,634.0,769.0,290.0,-885.0,-32.0,2
1704,55.0,-219.0,-4.0,42.0,698.0,736.0,246.0,-839.0,-57.0,2
1705,45.0,-203.0,-18.0,83.0,748.0,725.0,208.0,-797.0,-88.0,2
1706,41.0,-193.0,-28.0,98.0,790.0,711.0,174.0,-749.0,-136.0,2
1707,35.0,-184.0,-19.0,80.0,831.0,671.0,148.0,-691.0,-124.0,2
1708,23.0,-164.0,-17.0,76.0,868.0,623.0,90.0,-608.0,-102.0,2
1709,9.0,-156.0,-29.0,93.0,899.0,591.0,61.0,-595.0,-145.0,2
1710,2.0,-164.0,-26.0,71.0,901.0,587.0,35.0,-630.0,-148.0,2
1711,-3.0,-169.0,-24.0,19.0,912.0,600.0,0.0,-658.0,-138.0,2
1712,-11.0,-173.0,-9.0,-43.0,928.0,601.0,-18.0,-671.0,-72.0,2
1713,-13.0,-176.0,0.0,-64.0,939.0,574.0,-39.0,-670.0,-44.0,2
1714,-23.0,-180.0,6.0,-58.0,978.0,532.0,-65.0,-693.0,-14.0,2
1715,-52.0,-184.0,18.0,-44.0,1015.0,496.0,-149.0,-717.0,-8.0,2
1716,-39.0,-203.0,21.0,-13.0,1004.0,505.0,-153.0,-755.0,68.0,2
1717,-48.0,-190.0,13.0,54.0,978.0,478.0,-137.0,-736.0,19.0,2
1718,-50.0,-180.0,12.0,74.0,969.0,440.0,-183.0,-694.0,14.0,2
1719,-52.0,-179.0,2.0,63.0,989.0,423.0,-177.0,-696.0,-9.0,2
1720,-58.0,-183.0,4.0,5.0,1038.0,393.0,-215.0,-704.0,-2.0,2
1721,-62.0,-181.0,-1.0,-77.0,1065.0,366.0,-229.0,-718.0,-24.0,2
1722,-60.0,-186.0,6.0,-186.0,1070.0,348.0,-218.0,-712.0,-4.0,2
1723,-54.0,-180.0,5.0,-286.0,1063.0,355.0,-202.0,-708.0,-16.0,2
1724,-42.0,-188.0,10.0,-373.0,1062.0,371.0,-143.0,-731.0,1.0,2
1725,-47.0,-198.0,21.0,-423.0,1082.0,373.0,-177.0,-749.0,41.0,2
1726,-71.0,-203.0,38.0,-397.0,1097.0,368.0,-226.0,-785.0,96.0,2
1727,-73.0,-213.0,42.0,-303.0,1058.0,347.0,-254.0,-804.0,128.0,2
1728,-76.0,-208.0,43.0,-179.0,976.0,316.0,-268.0,-811.0,121.0,2
1729,-72.0,-210.0,39.0,-72.0,903.0,270.0,-258.0,-804.0,107.0,2
1730,-68.0,-206.0,29.0,-8.0,852.0,216.0,-246.0,-795.0,82.0,2
1731,-63.0,-201.0,28.0,8.0,819.0,172.0,-216.0,-780.0,75.0,2
1732,-56.0,-190.0,28.0,-11.0,801.0,132.0,-200.0,-758.0,77.0,2
1733,-57.0,-190.0,26.0,-56.0,793.0,98.0,-192.0,-749.0,84.0,2
1734,-56.0,-188.0,31.0,-114.0,785.0,72.0,-189.0,-742.0,90.0,2
1735,-59.0,-187.0,32.0,-170.0,779.0,43.0,-199.0,-736.0,88.0,2
1736,-55.0,-184.0,30.0,-216.0,772.0,14.0,-194.0,-718.0,88.0,2
1737,-48.0,-184.0,28.0,-245.0,762.0,-8.0,-163.0,-706.0,87.0,2
1738,-46.0,-182.0,32.0,-268.0,755.0,-32.0,-155.0,-697.0,88.0,2
1739,-43.0,-185.0,37.0,-290.0,748.0,-58.0,-141.0,-715.0,104.0,2
1740,-39.0,-190.0,40.0,-300.0,743.0,-85.0,-108.0,-737.0,142.0,2
1741,-30.0,-201.0,56.0,-293.0,744.0,-110.0,-87.0,-791.0,201.0,2
1742,-20.0,-218.0,78.0,-251.0,756.0,-129.0,-67.0,-836.0,271.0,2
1743,-25.0,-236.0,108.0,-173.0,784.0,-148.0,-76.0,-886.0,380.0,2
1744,-30.0,-258.0,134.0,-33.0,822.0,-163.0,-71.0,-951.0,476.0,2
1745,-21.0,-266.0,139.0,160.0,854.0,-174.0,-56.0,-1015.0,536.0,2
1746,-19.0,-272.0,132.0,366.0,885.0,-175.0,-29.0,-1032.0,502.0,2
1747,-21.0,-279.0,109.0,558.0,897.0,-175.0,-40.0,-1065.0,416.0,2
1748,-24.0,-271.0,76.0,717.0,913.0,-184.0,-49.0,-1046.0,274.0,2
1749,-36.0,-276.0,61.0,818.0,974.0,-191.0,-94.0,-1068.0,200.0,2
1750,-51.0,-268.0,38.0,870.0,1012.0,-195.0,-159.0,-1054.0,119.0,2
1751,-53.0,-269.0,14.0,873.0,1001.0,-193.0,-173.0,-1052.0,29.0,2
1752,-41.0,-262.0,-21.0,828.0,938.0,-215.0,-123.0,-1047.0,-106.0,2
1753,-19.0,-270.0,-45.0,720.0,877.0,-234.0,-37.0,-1065.0,-209.0,2
1754,-11.0,-278.0,-45.0,568.0,846.0,-250.0,-19.0,-1095.0,-236.0,2
1755,-15.0,-289.0,-25.0,433.0,823.0,-260.0,-30.0,-1125.0,-172.0,2
1756,-26.0,-295.0,7.0,347.0,797.0,-268.0,-54.0,-1141.0,-47.0,2
1757,-39.0,-292.0,33.0,313.0,767.0,-263.0,-94.0,-1147.0,66.0,2
1758,-47.0,-281.0,55.0,274.0,750.0,-233.0,-144.0,-1121.0,170.0,2
1759,-76.0,-277.0,69.0,224.0,762.0,-146.0,-254.0,-1104.0,242.0,2
1760,-117.0,-280.0,74.0,128.0,758.0,-7.0,-392.0,-1116.0,267.0,2
1761,-144.0,-292.0,81.0,-22.0,686.0,149.0,-522.0,-1169.0,275.0,2
1762,-156.0,-300.0,72.0,-184.0,535.0,279.0,-545.0,-1183.0,252.0,2
1763,-153.0,-302.0,68.0,-299.0,371.0,352.0,-548.0,-1174.0,224.0,2
1764,-145.0,-289.0,61.0,-342.0,242.0,381.0,-542.0,-1115.0,208.0,2
1765,-155.0,-265.0,55.0,-322.0,170.0,381.0,-577.0,-1050.0,188.0,2
1766,-163.0,-247.0,48.0,-287.0,87.0,372.0,-601.0,-965.0,154.0,2
1767,-163.0,-232.0,43.0,-286.0,14.0,359.0,-606.0,-919.0,131.0,2
1768,-167.0,-228.0,37.0,-330.0,-41.0,338.0,-626.0,-911.0,110.0,2
1769,-178.0,-251.0,35.0,-396.0,-98.0,310.0,-678.0,-1003.0,104.0,2
1770,-183.0,-294.0,17.0,-438.0,-178.0,283.0,-688.0,-1159.0,33.0,2
1771,-141.0,-350.0,-54.0,-441.0,-248.0,286.0,-572.0,-1317.0,-214.0,2
1772,-129.0,-399.0,-86.0,-491.0,-276.0,340.0,-465.0,-1569.0,-401.0,2
1773,-128.0,-433.0,-57.0,-598.0,-304.0,454.0,-455.0,-1684.0,-291.0,2
1774,-149.0,-444.0,27.0,-624.0,-353.0,594.0,-537.0,-1722.0,29.0,2
1775,-163.0,-448.0,99.0,-544.0,-393.0,768.0,-567.0,-1745.0,310.0,2
1776,-151.0,-454.0,97.0,-394.0,-450.0,928.0,-541.0,-1744.0,358.0,2
1777,-116.0,-442.0,71.0,-204.0,-535.0,1043.0,-434.0,-1703.0,262.0,2
1778,-116.0,-419.0,23.0,22.0,-551.0,1088.0,-416.0,-1641.0,87.0,2
1779,-106.0,-383.0,1.0,208.0,-495.0,1101.0,-388.0,-1518.0,-15.0,2
1780,-69.0,-344.0,-25.0,333.0,-454.0,1096.0,-274.0,-1370.0,-123.0,2
1781,-36.0,-308.0,-37.0,379.0,-423.0,1053.0,-146.0,-1219.0,-177.0,2
1782,-8.0,-269.0,-38.0,383.0,-353.0,962.0,-53.0,-1026.0,-193.0,2
1783,12.0,-240.0,-37.0,418.0,-235.0,855.0,82.0,-895.0,-194.0,2
1784,31.0,-218.0,-68.0,513.0,-132.0,761.0,147.0,-831.0,-310.0,2
1785,42.0,-209.0,-104.0,600.0,-38.0,678.0,166.0,-801.0,-465.0,2
1786,56.0,-206.0,-151.0,609.0,66.0,597.0,216.0,-796.0,-645.0,2
1787,60.0,-211.0,-157.0,522.0,163.0,525.0,249.0,-818.0,-695.0,2
1788,60.0,-229.0,-145.0,449.0,213.0,458.0,261.0,-855.0,-643.0,2
1789,55.0,-249.0,-125.0,445.0,208.0,414.0,248.0,-933.0,-544.0,2
1790,57.0,-278.0,-103.0,454.0,162.0,400.0,257.0,-1072.0,-464.0,2
1791,63.0,-311.0,-91.0,365.0,104.0,380.0,284.0,-1220.0,-426.0,2
1792,65.0,-342.0,-73.0,159.0,70.0,335.0,291.0,-1344.0,-347.0,2
1793,65.0,-373.0,-48.0,-63.0,86.0,285.0,280.0,-1455.0,-213.0,2
1794,64.0,-396.0,-18.0,-199.0,138.0,233.0,285.0,-1537.0,-103.0,2
1795,53.0,-406.0,3.0,-221.0,212.0,161.0,250.0,-1568.0,-11.0,2
1796,39.0,-412.0,20.0,-146.0,296.0,67.0,177.0,-1570.0,36.0,2
1797,18.0,-404.0,21.0,-29.0,372.0,-40.0,103.0,-1551.0,35.0,2
1798,-8.0,-389.0,14.0,69.0,409.0,-155.0,25.0,-1514.0,33.0,2
1799,-29.0,-374.0,18.0,144.0,402.0,-254.0,-60.0,-1449.0,27.0,2
1800,-45.0,-346.0,17.0,219.0,370.0,-319.0,-119.0,-1360.0,26.0,2
1801,-56.0,-316.0,3.0,297.0,314.0,-377.0,-166.0,-1255.0,-4.0,2
1802,-61.0,-287.0,-13.0,354.0,227.0,-441.0,-196.0,-1142.0,-70.0,2
1803,-63.0,-254.0,-42.0,352.0,131.0,-519.0,-217.0,-1043.0,-176.0,2
1804,-58.0,-231.0,-67.0,251.0,61.0,-597.0,-201.0,-920.0,-302.0,2
1805,-56.0,-208.0,-81.0,66.0,30.0,-668.0,-207.0,-838.0,-357.0,2
1806,-62.0,-193.0,-72.0,-151.0,38.0,-728.0,-220.0,-768.0,-342.0,2
1807,-62.0,-186.0,-65.0,-340.0,57.0,-776.0,-231.0,-736.0,-304.0,2
1808,-72.0,-182.0,-47.0,-487.0,79.0,-823.0,-262.0,-718.0,-242.0,2
1809,-79.0,-186.0,-34.0,-597.0,103.0,-851.0,-300.0,-728.0,-188.0,2
1810,-85.0,-188.0,-17.0,-663.0,121.0,-858.0,-318.0,-730.0,-94.0,2
1811,-86.0,-187.0,5.0,-658.0,126.0,-849.0,-318.0,-718.0,-27.0,2
1812,-83.0,-186.0,20.0,-592.0,108.0,-834.0,-299.0,-721.0,29.0,2
1813,-80.0,-190.0,25.0,-473.0,61.0,-815.0,-277.0,-722.0,55.0,2
1814,-78.0,-191.0,24.0,-330.0,-5.0,-789.0,-274.0,-735.0,45.0,2
1815,-78.0,-193.0,18.0,-196.0,-70.0,-746.0,-266.0,-752.0,31.0,2
1816,-72.0,-198.0,3.0,-87.0,-137.0,-693.0,-269.0,-764.0,-14.0,2
1817,-73.0,-195.0,-9.0,-26.0,-202.0,-643.0,-260.0,-756.0,-66.0,2
1818,-70.0,-192.0,-9.0,0.0,-266.0,-609.0,-235.0,-750.0,-75.0,2
1819,-62.0,-190.0,-15.0,12.0,-343.0,-601.0,-197.0,-743.0,-92.0,2
1820,-52.0,-184.0,-26.0,-2.0,-416.0,-618.0,-181.0,-733.0,-148.0,2
1821,-47.0,-183.0,-25.0,-69.0,-477.0,-636.0,-158.0,-706.0,-153.0,2
1822,-40.0,-175.0,-19.0,-148.0,-529.0,-639.0,-127.0,-673.0,-118.0,2
1823,-27.0,-171.0,-10.0,-183.0,-568.0,-637.0,-80.0,-653.0,-64.0,2
1824,-14.0,-166.0,0.0,-156.0,-599.0,-636.0,-29.0,-640.0,-29.0,2
1825,1.0,-161.0,-1.0,-99.0,-621.0,-636.0,16.0,-607.0,-34.0,2
1826,10.0,-157.0,-6.0,-51.0,-629.0,-634.0,48.0,-598.0,-58.0,2
1827,10.0,-157.0,-6.0,-42.0,-624.0,-622.0,74.0,-599.0,-54.0,2
1828,15.0,-163.0,-2.0,-66.0,-624.0,-606.0,86.0,-632.0,-52.0,2
1829,33.0,-166.0,9.0,-97.0,-629.0,-591.0,137.0,-648.0,12.0,2
1830,33.0,-172.0,3.0,-95.0,-628.0,-580.0,161.0,-671.0,-22.0,2
1831,38.0,-178.0,9.0,-114.0,-603.0,-568.0,168.0,-676.0,-1.0,2
1832,29.0,-179.0,18.0,-128.0,-589.0,-555.0,155.0,-687.0,22.0,2
1833,22.0,-187.0,24.0,-115.0,-598.0,-534.0,127.0,-705.0,61.0,2
1834,18.0,-199.0,25.0,-74.0,-618.0,-507.0,97.0,-748.0,62.0,2
1835,18.0,-216.0,47.0,-25.0,-624.0,-478.0,90.0,-785.0,102.0,2
1836,13.0,-217.0,55.0,104.0,-632.0,-458.0,82.0,-798.0,191.0,2
1837,20.0,-206.0,41.0,308.0,-640.0,-452.0,111.0,-788.0,128.0,2
1838,16.0,-196.0,14.0,452.0,-644.0,-446.0,99.0,-766.0,30.0,2
1839,11.0,-190.0,-2.0,479.0,-639.0,-416.0,74.0,-743.0,-32.0,2
1840,13.0,-184.0,-9.0,426.0,-620.0,-367.0,72.0,-724.0,-62.0,2
1841,17.0,-181.0,-13.0,342.0,-592.0,-329.0,89.0,-700.0,-79.0,2
1842,15.0,-174.0,-2.0,264.0,-555.0,-294.0,83.0,-668.0,-52.0,2
1843,12.0,-168.0,1.0,213.0,-514.0,-253.0,68.0,-656.0,-18.0,2
1844,5.0,-157.0,14.0,178.0,-471.0,-209.0,46.0,-615.0,21.0,2
1845,0.0,-155.0,14.0,162.0,-427.0,-155.0,17.0,-597.0,23.0,2
1846,2.0,-158.0,16.0,129.0,-388.0,-92.0,25.0,-609.0,38.0,2
1847,1.0,-160.0,22.0,73.0,-363.0,-41.0,26.0,-628.0,55.0,2
1848,1.0,-161.0,30.0,15.0,-353.0,2.0,21.0,-631.0,84.0,2
1849,1.0,-168.0,35.0,-32.0,-352.0,49.0,31.0,-658.0,101.0,2
1850,0.0,-179.0,44.0,-79.0,-350.0,110.0,29.0,-693.0,141.0,2
1851,-3.0,-189.0,56.0,-94.0,-352.0,162.0,16.0,-721.0,177.0,2
1852,-7.0,-195.0,59.0,-72.0,-377.0,185.0,-5.0,-759.0,174.0,2
1853,-10.0,-215.0,51.0,-42.0,-430.0,200.0,-7.0,-813.0,159.0,2
1854,-10.0,-227.0,52.0,-14.0,-480.0,218.0,-15.0,-848.0,159.0,2
1855,-11.0,-236.0,47.0,33.0,-511.0,240.0,-4.0,-891.0,155.0,2
1856,-10.0,-246.0,44.0,90.0,-523.0,260.0,-1.0,-932.0,145.0,2
1857,-8.0,-256.0,35.0,139.0,-535.0,265.0,-4.0,-984.0,123.0,2
1858,-13.0,-266.0,42.0,160.0,-547.0,264.0,4.0,-1046.0,121.0,2
1859,-18.0,-283.0,43.0,157.0,-584.0,264.0,-20.0,-1101.0,128.0,2
1860,-23.0,-302.0,45.0,142.0,-641.0,256.0,-47.0,-1162.0,149.0,2
1861,-30.0,-315.0,51.0,128.0,-683.0,243.0,-81.0,-1217.0,162.0,2
1862,-38.0,-325.0,54.0,121.0,-695.0,231.0,-119.0,-1256.0,169.0,2
1863,-51.0,-328.0,53.0,128.0,-674.0,227.0,-176.0,-1278.0,172.0,2
1864,-59.0,-331.0,51.0,139.0,-633.0,222.0,-204.0,-1288.0,165.0,2
1865,-54.0,-331.0,45.0,143.0,-586.0,206.0,-193.0,-1288.0,145.0,2
1866,-40.0,-330.0,39.0,134.0,-537.0,180.0,-135.0,-1286.0,125.0,2
1867,-3.0,-332.0,43.0,103.0,-497.0,136.0,-14.0,-1292.0,140.0,2
1868,32.0,-341.0,50.0,44.0,-474.0,69.0,152.0,-1329.0,152.0,2
1869,69.0,-348.0,48.0,-46.0,-455.0,-21.0,316.0,-1369.0,178.0,2
1870,97.0,-361.0,63.0,-159.0,-422.0,-129.0,418.0,-1406.0,200.0,2
1871,109.0,-366.0,70.0,-255.0,-375.0,-237.0,460.0,-1409.0,237.0,2
1872,109.0,-361.0,76.0,-295.0,-317.0,-321.0,454.0,-1378.0,250.0,2
1873,91.0,-342.0,75.0,-275.0,-250.0,-371.0,418.0,-1313.0,260.0,2
1874,86.0,-317.0,76.0,-232.0,-182.0,-390.0,373.0,-1227.0,252.0,2
1875,73.0,-294.0,73.0,-205.0,-127.0,-380.0,326.0,-1126.0,242.0,2
1876,62.0,-266.0,67.0,-214.0,-95.0,-348.0,282.0,-1053.0,242.0,2
1877,47.0,-252.0,76.0,-283.0,-83.0,-317.0,218.0,-976.0,265.0,2
1878,29.0,-251.0,91.0,-374.0,-77.0,-270.0,163.0,-979.0,330.0,2
1879,11.0,-261.0,109.0,-464.0,-100.0,-248.0,93.0,-1027.0,403.0,2
1880,7.0,-269.0,125.0,-523.0,-136.0,-230.0,82.0,-1063.0,475.0,2
1881,9.0,-282.0,139.0,-569.0,-187.0,-232.0,87.0,-1093.0,521.0,2
1882,32.0,-310.0,117.0,-544.0,-243.0,-246.0,157.0,-1172.0,462.0,2
1883,44.0,-335.0,58.0,-489.0,-303.0,-291.0,237.0,-1289.0,235.0,2
1884,15.0,-364.0,-36.0,-439.0,-353.0,-309.0,120.0,-1401.0,-110.0,2
1885,-8.0,-386.0,-115.0,-451.0,-344.0,-290.0,-2.0,-1513.0,-446.0,2
1886,-4.0,-418.0,-109.0,-560.0,-222.0,-315.0,-14.0,-1614.0,-514.0,2
1887,3.0,-442.0,-35.0,-666.0,-38.0,-436.0,32.0,-1687.0,-277.0,2
1888,13.0,-440.0,54.0,-645.0,103.0,-618.0,101.0,-1687.0,105.0,2
1889,30.0,-424.0,92.0,-494.0,152.0,-792.0,152.0,-1620.0,306.0,2
1890,59.0,-396.0,83.0,-284.0,165.0,-885.0,258.0,-1498.0,287.0,2
1891,89.0,-371.0,32.0,-52.0,181.0,-942.0,397.0,-1406.0,87.0,2
1892,123.0,-345.0,-53.0,163.0,213.0,-956.0,511.0,-1312.0,-245.0,2
1893,119.0,-316.0,-130.0,320.0,286.0,-927.0,467.0,-1195.0,-568.0,2
1894,96.0,-297.0,-165.0,428.0,417.0,-848.0,402.0,-1129.0,-730.0,2
1895,80.0,-283.0,-150.0,505.0,508.0,-775.0,347.0,-1086.0,-699.0,2
1896,54.0,-271.0,-131.0,554.0,490.0,-720.0,256.0,-1037.0,-586.0,2
1897,36.0,-256.0,-114.0,586.0,421.0,-673.0,182.0,-982.0,-517.0,2
1898,14.0,-251.0,-120.0,589.0,379.0,-631.0,89.0,-975.0,-523.0,2
1899,-9.0,-247.0,-121.0,555.0,372.0,-586.0,-1.0,-951.0,-540.0,2
1900,-45.0,-248.0,-114.0,515.0,363.0,-545.0,-119.0,-950.0,-508.0,2
1901,-73.0,-250.0,-107.0,488.0,329.0,-494.0,-262.0,-983.0,-476.0,2
1902,-89.0,-266.0,-101.0,441.0,274.0,-420.0,-315.0,-1059.0,-452.0,2
1903,-92.0,-286.0,-90.0,344.0,213.0,-329.0,-328.0,-1140.0,-413.0,2
1904,-93.0,-302.0,-80.0,231.0,152.0,-252.0,-322.0,-1178.0,-349.0,2
1905,-94.0,-312.0,-60.0,161.0,80.0,-210.0,-331.0,-1200.0,-279.0,2
1906,-98.0,-313.0,-47.0,169.0,9.0,-190.0,-342.0,-1212.0,-239.0,2
1907,-102.0,-313.0,-39.0,213.0,-31.0,-178.0,-367.0,-1218.0,-205.0,2
1908,-114.0,-312.0,-23.0,239.0,-37.0,-148.0,-402.0,-1225.0,-155.0,2
1909,-122.0,-311.0,-4.0,240.0,-37.0,-76.0,-434.0,-1221.0,-76.0,2
1910,-120.0,-313.0,13.0,244.0,-57.0,16.0,-428.0,-1227.0,-3.0,2
1911,-103.0,-315.0,13.0,256.0,-95.0,95.0,-379.0,-1240.0,20.0,2
1912,-82.0,-315.0,8.0,241.0,-131.0,165.0,-296.0,-1253.0,-5.0,2
1913,-68.0,-311.0,-2.0,203.0,-130.0,225.0,-250.0,-1217.0,-17.0,2
1914,-61.0,-301.0,-5.0,198.0,-84.0,282.0,-209.0,-1171.0,-49.0,2
1915,-50.0,-284.0,-21.0,227.0,-27.0,326.0,-177.0,-1104.0,-118.0,2
