,acc1_x,acc1_y,acc1_z,gyro_x,gyro_y,gyro_z,acc2_x,acc2_y,acc2_z,label
0,-2.0,-254.0,-17.0,-32.0,118.0,-10.0,-23.0,-977.0,8.0,3
1,-2.0,-254.0,-20.0,-28.0,119.0,-11.0,-27.0,-978.0,16.0,3
2,-5.0,-254.0,-16.0,-24.0,119.0,-9.0,-30.0,-977.0,18.0,3
3,-1.0,-251.0,-19.0,-20.0,119.0,-10.0,-32.0,-975.0,12.0,3
4,-3.0,-257.0,-20.0,-19.0,120.0,-10.0,-31.0,-978.0,16.0,3
5,-4.0,-259.0,-15.0,-15.0,120.0,-11.0,-31.0,-978.0,14.0,3
6,-3.0,-254.0,-17.0,-13.0,122.0,-10.0,-30.0,-981.0,19.0,3
7,0.0,-254.0,-19.0,-10.0,124.0,-12.0,-27.0,-983.0,20.0,3
8,0.0,-255.0,-19.0,-9.0,126.0,-12.0,-31.0,-985.0,20.0,3
9,-2.0,-257.0,-15.0,-7.0,126.0,-14.0,-24.0,-981.0,20.0,3
10,-2.0,-258.0,-18.0,-5.0,128.0,-13.0,-28.0,-994.0,21.0,3
11,-3.0,-256.0,-18.0,-3.0,129.0,-16.0,-25.0,-1005.0,28.0,3
12,-2.0,-253.0,-18.0,1.0,129.0,-16.0,-26.0,-987.0,26.0,3
13,-4.0,-256.0,-14.0,2.0,129.0,-17.0,-24.0,-984.0,25.0,3
14,-4.0,-254.0,-17.0,4.0,128.0,-16.0,-29.0,-990.0,31.0,3
15,-5.0,-256.0,-19.0,6.0,126.0,-17.0,-32.0,-992.0,31.0,3
16,-3.0,-256.0,-15.0,6.0,124.0,-16.0,-31.0,-995.0,25.0,3
17,-4.0,-255.0,-16.0,8.0,124.0,-18.0,-35.0,-989.0,32.0,3
18,-3.0,-256.0,-17.0,6.0,123.0,-17.0,-34.0,-992.0,21.0,3
19,-2.0,-253.0,-17.0,6.0,123.0,-17.0,-32.0,-995.0,27.0,3
20,-3.0,-256.0,-18.0,7.0,122.0,-15.0,-28.0,-989.0,28.0,3
21,-6.0,-254.0,-18.0,6.0,121.0,-17.0,-34.0,-985.0,25.0,3
22,1.0,-251.0,-5.0,5.0,123.0,-18.0,-38.0,-984.0,25.0,3
23,-7.0,-260.0,-19.0,4.0,123.0,-20.0,-32.0,-984.0,26.0,3
24,-11.0,-255.0,-19.0,2.0,123.0,-17.0,-41.0,-986.0,28.0,3
25,-8.0,-257.0,-14.0,-2.0,122.0,-19.0,-37.0,-980.0,27.0,3
26,-9.0,-256.0,-20.0,-3.0,121.0,-18.0,-40.0,-989.0,29.0,3
27,-4.0,-256.0,-14.0,-4.0,120.0,-19.0,-37.0,-983.0,30.0,3
28,-10.0,-255.0,-20.0,-4.0,119.0,-17.0,-35.0,-980.0,27.0,3
29,-9.0,-260.0,-18.0,-4.0,117.0,-19.0,-36.0,-982.0,36.0,3
30,-5.0,-242.0,-22.0,-6.0,115.0,-17.0,-36.0,-980.0,32.0,3
31,-8.0,-258.0,-11.0,-4.0,113.0,-19.0,-36.0,-990.0,32.0,3
32,2.0,-258.0,-27.0,-4.0,111.0,-16.0,-35.0,-980.0,37.0,3
33,-3.0,-254.0,-9.0,0.0,109.0,-18.0,-31.0,-981.0,33.0,3
34,-9.0,-254.0,-22.0,0.0,106.0,-16.0,-32.0,-981.0,29.0,3
35,3.0,-250.0,-12.0,-1.0,106.0,-17.0,-28.0,-983.0,37.0,3
36,-2.0,-248.0,-3.0,1.0,104.0,-14.0,-34.0,-979.0,41.0,3
37,-5.0,-261.0,-17.0,1.0,103.0,-16.0,-34.0,-985.0,36.0,3
38,-8.0,-258.0,-13.0,1.0,103.0,-14.0,-33.0,-979.0,34.0,3
39,-16.0,-258.0,-29.0,1.0,100.0,-15.0,-35.0,-984.0,33.0,3
40,-5.0,-258.0,-16.0,0.0,98.0,-14.0,-34.0,-983.0,24.0,3
41,-3.0,-255.0,-16.0,-3.0,98.0,-14.0,-34.0,-981.0,28.0,3
42,-4.0,-256.0,-13.0,-5.0,94.0,-12.0,-36.0,-983.0,31.0,3
43,-4.0,-256.0,-15.0,-6.0,92.0,-13.0,-35.0,-985.0,27.0,3
44,8.0,-259.0,-23.0,-7.0,92.0,-10.0,-32.0,-991.0,27.0,3
45,-4.0,-255.0,-15.0,-8.0,91.0,-13.0,-35.0,-992.0,28.0,3
46,-5.0,-256.0,-14.0,-7.0,90.0,-12.0,-28.0,-994.0,27.0,3
47,-3.0,-256.0,-19.0,-8.0,89.0,-13.0,-31.0,-991.0,31.0,3
48,-4.0,-253.0,-14.0,-9.0,89.0,-11.0,-26.0,-987.0,30.0,3
49,-6.0,-253.0,-16.0,-10.0,90.0,-12.0,-26.0,-990.0,28.0,3
50,-2.0,-258.0,-16.0,-11.0,87.0,-11.0,-30.0,-1001.0,36.0,3
51,-5.0,-255.0,-17.0,-13.0,86.0,-13.0,-27.0,-990.0,32.0,3
52,-4.0,-256.0,-13.0,-12.0,86.0,-10.0,-28.0,-995.0,31.0,3
53,-1.0,-257.0,-16.0,-15.0,85.0,-14.0,-27.0,-983.0,30.0,3
54,-3.0,-253.0,-13.0,-14.0,83.0,-12.0,-31.0,-995.0,33.0,3
55,-4.0,-254.0,-16.0,-14.0,84.0,-15.0,-31.0,-983.0,32.0,3
56,-3.0,-256.0,-19.0,-12.0,84.0,-11.0,-35.0,-988.0,33.0,3
57,-4.0,-256.0,-17.0,-11.0,83.0,-14.0,-31.0,-987.0,28.0,3
58,-1.0,-256.0,-17.0,-11.0,81.0,-13.0,-33.0,-991.0,25.0,3
59,-6.0,-254.0,-17.0,-10.0,79.0,-16.0,-34.0,-984.0,31.0,3
60,-1.0,-254.0,-17.0,-10.0,77.0,-14.0,-33.0,-984.0,28.0,3
61,-4.0,-254.0,-15.0,-11.0,75.0,-16.0,-34.0,-983.0,21.0,3
62,-5.0,-253.0,-17.0,-12.0,74.0,-16.0,-31.0,-984.0,21.0,3
63,-5.0,-252.0,-16.0,-14.0,72.0,-19.0,-36.0,-976.0,26.0,3
64,-4.0,-253.0,-17.0,-16.0,70.0,-18.0,-33.0,-973.0,25.0,3
65,-7.0,-252.0,-17.0,-21.0,66.0,-19.0,-31.0,-977.0,25.0,3
66,-5.0,-252.0,-18.0,-24.0,63.0,-16.0,-31.0,-976.0,24.0,3
67,-5.0,-252.0,-17.0,-29.0,60.0,-18.0,-36.0,-976.0,26.0,3
68,-3.0,-250.0,-19.0,-33.0,59.0,-16.0,-34.0,-975.0,28.0,3
69,-4.0,-252.0,-15.0,-35.0,56.0,-19.0,-31.0,-977.0,24.0,3
70,-5.0,-250.0,-21.0,-38.0,56.0,-15.0,-32.0,-976.0,23.0,3
71,-6.0,-253.0,-16.0,-41.0,52.0,-18.0,-33.0,-978.0,25.0,3
72,-5.0,-250.0,-19.0,-42.0,51.0,-16.0,-32.0,-975.0,26.0,3
73,-4.0,-253.0,-18.0,-48.0,46.0,-19.0,-32.0,-975.0,24.0,3
74,-5.0,-252.0,-16.0,-50.0,41.0,-16.0,-36.0,-967.0,25.0,3
75,-4.0,-253.0,-18.0,-52.0,35.0,-17.0,-35.0,-976.0,29.0,3
76,-3.0,-252.0,-16.0,-55.0,31.0,-14.0,-34.0,-974.0,35.0,3
77,-5.0,-254.0,-11.0,-57.0,27.0,-15.0,-34.0,-973.0,32.0,3
78,-6.0,-253.0,-16.0,-60.0,21.0,-12.0,-38.0,-980.0,29.0,3
79,-7.0,-255.0,-15.0,-61.0,15.0,-12.0,-43.0,-981.0,30.0,3
80,-7.0,-254.0,-17.0,-61.0,8.0,-9.0,-48.0,-1002.0,26.0,3
81,-10.0,-255.0,-17.0,-61.0,-3.0,-11.0,-51.0,-981.0,24.0,3
82,-10.0,-258.0,-23.0,-64.0,-12.0,-8.0,-53.0,-989.0,19.0,3
83,-10.0,-254.0,-19.0,-66.0,-23.0,-10.0,-55.0,-991.0,16.0,3
84,-10.0,-254.0,-21.0,-69.0,-32.0,-9.0,-56.0,-981.0,18.0,3
85,-10.0,-254.0,-17.0,-70.0,-39.0,-13.0,-54.0,-973.0,13.0,3
86,-8.0,-253.0,-16.0,-74.0,-47.0,-10.0,-61.0,-972.0,19.0,3
87,-11.0,-249.0,-19.0,-78.0,-55.0,-10.0,-62.0,-970.0,18.0,3
88,-13.0,-252.0,-18.0,-84.0,-63.0,-7.0,-73.0,-967.0,16.0,3
89,-13.0,-251.0,-19.0,-94.0,-77.0,-5.0,-75.0,-966.0,13.0,3
90,-15.0,-251.0,-19.0,-104.0,-93.0,-2.0,-79.0,-965.0,8.0,3
91,-18.0,-249.0,-20.0,-117.0,-113.0,0.0,-92.0,-964.0,-1.0,3
92,-21.0,-247.0,-24.0,-129.0,-136.0,4.0,-100.0,-958.0,-6.0,3
93,-23.0,-246.0,-23.0,-141.0,-160.0,5.0,-105.0,-958.0,-7.0,3
94,-30.0,-247.0,-28.0,-150.0,-185.0,12.0,-121.0,-946.0,-20.0,3
95,-29.0,-246.0,-33.0,-161.0,-221.0,16.0,-138.0,-944.0,-36.0,3
96,-36.0,-243.0,-36.0,-166.0,-256.0,25.0,-161.0,-943.0,-43.0,3
97,-42.0,-241.0,-34.0,-168.0,-294.0,34.0,-175.0,-930.0,-54.0,3
98,-48.0,-240.0,-36.0,-169.0,-332.0,49.0,-199.0,-920.0,-48.0,3
99,-47.0,-238.0,-39.0,-169.0,-371.0,60.0,-211.0,-915.0,-56.0,3
100,-54.0,-234.0,-37.0,-171.0,-412.0,75.0,-224.0,-909.0,-55.0,3
101,-55.0,-233.0,-36.0,-178.0,-450.0,87.0,-240.0,-904.0,-52.0,3
102,-57.0,-233.0,-35.0,-189.0,-486.0,103.0,-252.0,-902.0,-53.0,3
103,-66.0,-229.0,-38.0,-200.0,-517.0,113.0,-258.0,-900.0,-51.0,3
104,-66.0,-228.0,-35.0,-213.0,-544.0,126.0,-266.0,-895.0,-47.0,3
105,-65.0,-231.0,-34.0,-221.0,-564.0,133.0,-268.0,-897.0,-49.0,3
106,-64.0,-233.0,-32.0,-228.0,-576.0,142.0,-272.0,-905.0,-47.0,3
107,-64.0,-236.0,-37.0,-231.0,-587.0,146.0,-270.0,-905.0,-41.0,3
108,-64.0,-236.0,-32.0,-230.0,-596.0,153.0,-264.0,-907.0,-36.0,3
109,-65.0,-234.0,-29.0,-220.0,-604.0,152.0,-256.0,-902.0,-22.0,3
110,-62.0,-234.0,-26.0,-205.0,-609.0,153.0,-254.0,-901.0,-12.0,3
111,-60.0,-229.0,-24.0,-191.0,-612.0,148.0,-239.0,-897.0,2.0,3
112,-59.0,-232.0,-24.0,-182.0,-615.0,143.0,-227.0,-899.0,8.0,3
113,-51.0,-229.0,-17.0,-178.0,-616.0,133.0,-215.0,-886.0,18.0,3
114,-44.0,-228.0,-15.0,-179.0,-613.0,124.0,-204.0,-892.0,32.0,3
115,-40.0,-229.0,-11.0,-187.0,-609.0,106.0,-185.0,-892.0,45.0,3
116,-38.0,-234.0,-13.0,-198.0,-604.0,93.0,-169.0,-901.0,49.0,3
117,-33.0,-237.0,-8.0,-211.0,-601.0,75.0,-155.0,-910.0,61.0,3
118,-30.0,-237.0,-4.0,-221.0,-601.0,62.0,-136.0,-919.0,67.0,3
119,-25.0,-239.0,1.0,-226.0,-598.0,46.0,-119.0,-936.0,80.0,3
120,-16.0,-251.0,1.0,-228.0,-594.0,34.0,-100.0,-951.0,91.0,3
121,-12.0,-253.0,7.0,-225.0,-585.0,17.0,-74.0,-974.0,102.0,3
122,-7.0,-258.0,8.0,-222.0,-571.0,3.0,-48.0,-1009.0,108.0,3
123,-1.0,-263.0,5.0,-216.0,-550.0,-12.0,-20.0,-1029.0,115.0,3
124,3.0,-270.0,5.0,-210.0,-533.0,-21.0,-4.0,-1048.0,118.0,3
125,5.0,-273.0,6.0,-205.0,-513.0,-37.0,3.0,-1061.0,114.0,3
126,12.0,-279.0,7.0,-199.0,-492.0,-53.0,3.0,-1077.0,109.0,3
127,7.0,-278.0,5.0,-190.0,-478.0,-76.0,8.0,-1083.0,106.0,3
128,6.0,-280.0,4.0,-183.0,-466.0,-98.0,-2.0,-1087.0,100.0,3
129,0.0,-275.0,0.0,-179.0,-458.0,-128.0,-18.0,-1075.0,97.0,3
130,-6.0,-274.0,-1.0,-177.0,-452.0,-152.0,-40.0,-1066.0,95.0,3
131,-10.0,-269.0,-3.0,-180.0,-447.0,-182.0,-58.0,-1054.0,91.0,3
132,-13.0,-267.0,-4.0,-184.0,-445.0,-204.0,-82.0,-1045.0,88.0,3
133,-23.0,-266.0,-4.0,-189.0,-441.0,-229.0,-110.0,-1042.0,88.0,3
134,-37.0,-264.0,1.0,-196.0,-438.0,-250.0,-152.0,-1035.0,93.0,3
135,-48.0,-266.0,3.0,-200.0,-437.0,-271.0,-185.0,-1030.0,98.0,3
136,-54.0,-264.0,0.0,-203.0,-440.0,-283.0,-232.0,-1020.0,98.0,3
137,-64.0,-260.0,3.0,-205.0,-449.0,-292.0,-253.0,-1023.0,93.0,3
138,-67.0,-262.0,-1.0,-206.0,-457.0,-288.0,-277.0,-1022.0,90.0,3
139,-73.0,-263.0,-3.0,-205.0,-463.0,-282.0,-290.0,-1021.0,87.0,3
140,-75.0,-261.0,-4.0,-204.0,-469.0,-267.0,-304.0,-1020.0,80.0,3
141,-77.0,-263.0,-8.0,-202.0,-477.0,-251.0,-321.0,-1020.0,73.0,3
142,-78.0,-261.0,-6.0,-193.0,-484.0,-229.0,-324.0,-1019.0,78.0,3
143,-77.0,-261.0,-9.0,-183.0,-494.0,-209.0,-325.0,-1011.0,66.0,3
144,-76.0,-259.0,-7.0,-173.0,-502.0,-182.0,-326.0,-1004.0,62.0,3
145,-75.0,-255.0,-7.0,-160.0,-513.0,-158.0,-324.0,-987.0,61.0,3
146,-77.0,-255.0,-6.0,-150.0,-526.0,-130.0,-307.0,-973.0,61.0,3
147,-75.0,-253.0,-6.0,-144.0,-542.0,-108.0,-305.0,-963.0,67.0,3
148,-76.0,-249.0,-5.0,-138.0,-560.0,-82.0,-295.0,-957.0,74.0,3
149,-71.0,-247.0,-1.0,-135.0,-580.0,-63.0,-296.0,-947.0,81.0,3
150,-69.0,-248.0,-2.0,-132.0,-602.0,-35.0,-283.0,-949.0,90.0,3
151,-67.0,-248.0,0.0,-133.0,-627.0,-19.0,-276.0,-954.0,93.0,3
152,-65.0,-250.0,1.0,-138.0,-642.0,0.0,-271.0,-970.0,89.0,3
153,-67.0,-252.0,2.0,-147.0,-663.0,10.0,-262.0,-978.0,90.0,3
154,-61.0,-258.0,0.0,-160.0,-682.0,23.0,-254.0,-991.0,98.0,3
155,-57.0,-261.0,0.0,-171.0,-694.0,29.0,-232.0,-1016.0,88.0,3
156,-54.0,-264.0,0.0,-182.0,-707.0,37.0,-224.0,-1039.0,86.0,3
157,-47.0,-269.0,-4.0,-193.0,-713.0,39.0,-208.0,-1054.0,80.0,3
158,-46.0,-271.0,-5.0,-200.0,-715.0,47.0,-199.0,-1063.0,71.0,3
159,-41.0,-278.0,-7.0,-210.0,-725.0,51.0,-184.0,-1084.0,59.0,3
160,-38.0,-280.0,-6.0,-216.0,-736.0,60.0,-174.0,-1088.0,57.0,3
161,-39.0,-281.0,-12.0,-215.0,-752.0,65.0,-167.0,-1094.0,47.0,3
162,-35.0,-281.0,-16.0,-200.0,-772.0,75.0,-160.0,-1095.0,37.0,3
163,-30.0,-281.0,-17.0,-172.0,-790.0,78.0,-141.0,-1093.0,26.0,3
164,-26.0,-281.0,-19.0,-135.0,-805.0,82.0,-125.0,-1077.0,5.0,3
165,-24.0,-272.0,-26.0,-91.0,-813.0,81.0,-115.0,-1057.0,0.0,3
166,-22.0,-265.0,-27.0,-61.0,-813.0,81.0,-104.0,-1038.0,-14.0,3
167,-14.0,-261.0,-27.0,-39.0,-811.0,74.0,-98.0,-1010.0,-36.0,3
168,-12.0,-255.0,-39.0,-24.0,-808.0,74.0,-73.0,-992.0,-49.0,3
169,-11.0,-248.0,-40.0,-16.0,-807.0,65.0,-61.0,-966.0,-66.0,3
170,-6.0,-245.0,-45.0,-14.0,-808.0,60.0,-50.0,-943.0,-84.0,3
171,-3.0,-238.0,-52.0,-18.0,-809.0,48.0,-31.0,-927.0,-99.0,3
172,0.0,-230.0,-50.0,-29.0,-810.0,42.0,-13.0,-909.0,-110.0,3
173,3.0,-226.0,-53.0,-48.0,-812.0,29.0,1.0,-881.0,-114.0,3
174,10.0,-220.0,-53.0,-73.0,-813.0,22.0,11.0,-861.0,-122.0,3
175,14.0,-217.0,-57.0,-103.0,-813.0,10.0,24.0,-843.0,-121.0,3
176,16.0,-208.0,-53.0,-137.0,-812.0,5.0,29.0,-823.0,-117.0,3
177,16.0,-203.0,-55.0,-170.0,-808.0,-2.0,52.0,-802.0,-112.0,3
178,23.0,-200.0,-51.0,-206.0,-801.0,-3.0,68.0,-793.0,-113.0,3
179,28.0,-199.0,-53.0,-251.0,-785.0,-8.0,87.0,-791.0,-114.0,3
180,31.0,-200.0,-55.0,-293.0,-762.0,-9.0,102.0,-796.0,-120.0,3
181,36.0,-203.0,-52.0,-337.0,-734.0,-23.0,114.0,-802.0,-116.0,3
182,38.0,-206.0,-52.0,-375.0,-704.0,-34.0,121.0,-822.0,-116.0,3
183,40.0,-215.0,-55.0,-407.0,-673.0,-54.0,130.0,-852.0,-121.0,3
184,39.0,-223.0,-55.0,-427.0,-648.0,-71.0,137.0,-878.0,-123.0,3
185,43.0,-230.0,-52.0,-439.0,-628.0,-96.0,140.0,-901.0,-125.0,3
186,45.0,-238.0,-52.0,-443.0,-617.0,-114.0,148.0,-920.0,-115.0,3
187,46.0,-247.0,-47.0,-445.0,-611.0,-137.0,156.0,-952.0,-107.0,3
188,52.0,-252.0,-45.0,-436.0,-609.0,-153.0,163.0,-972.0,-91.0,3
189,49.0,-258.0,-40.0,-420.0,-609.0,-171.0,179.0,-1000.0,-74.0,3
190,54.0,-262.0,-37.0,-395.0,-610.0,-181.0,180.0,-1023.0,-62.0,3
191,52.0,-264.0,-37.0,-363.0,-602.0,-192.0,197.0,-1051.0,-45.0,3
192,58.0,-273.0,-34.0,-333.0,-589.0,-202.0,207.0,-1073.0,-31.0,3
193,61.0,-279.0,-29.0,-306.0,-577.0,-222.0,213.0,-1087.0,-8.0,3
194,64.0,-281.0,-22.0,-286.0,-571.0,-237.0,214.0,-1102.0,11.0,3
195,58.0,-286.0,-12.0,-268.0,-568.0,-256.0,212.0,-1108.0,37.0,3
196,58.0,-285.0,-7.0,-250.0,-564.0,-267.0,201.0,-1115.0,58.0,3
197,56.0,-293.0,-5.0,-230.0,-560.0,-280.0,201.0,-1130.0,78.0,3
198,53.0,-296.0,3.0,-206.0,-551.0,-287.0,188.0,-1139.0,94.0,3
199,52.0,-298.0,6.0,-177.0,-541.0,-297.0,179.0,-1148.0,113.0,3
200,52.0,-303.0,8.0,-141.0,-525.0,-302.0,177.0,-1162.0,123.0,3
201,49.0,-305.0,9.0,-102.0,-509.0,-314.0,172.0,-1172.0,122.0,3
202,46.0,-311.0,8.0,-64.0,-494.0,-323.0,152.0,-1184.0,122.0,3
203,42.0,-311.0,9.0,-31.0,-484.0,-339.0,133.0,-1191.0,127.0,3
204,39.0,-306.0,6.0,4.0,-478.0,-345.0,123.0,-1188.0,119.0,3
205,35.0,-305.0,8.0,38.0,-480.0,-355.0,114.0,-1176.0,118.0,3
206,33.0,-297.0,5.0,63.0,-478.0,-362.0,103.0,-1158.0,111.0,3
207,28.0,-289.0,7.0,81.0,-478.0,-373.0,93.0,-1137.0,115.0,3
208,29.0,-283.0,9.0,85.0,-481.0,-380.0,84.0,-1102.0,116.0,3
209,25.0,-277.0,8.0,82.0,-488.0,-386.0,70.0,-1070.0,122.0,3
210,19.0,-264.0,8.0,75.0,-499.0,-386.0,66.0,-1038.0,123.0,3
211,22.0,-257.0,7.0,65.0,-511.0,-387.0,58.0,-1004.0,123.0,3
212,17.0,-249.0,7.0,50.0,-521.0,-383.0,53.0,-976.0,121.0,3
213,16.0,-244.0,5.0,26.0,-528.0,-382.0,51.0,-950.0,120.0,3
214,18.0,-239.0,7.0,-5.0,-535.0,-379.0,50.0,-933.0,115.0,3
215,18.0,-234.0,8.0,-42.0,-538.0,-380.0,48.0,-921.0,116.0,3
216,15.0,-232.0,6.0,-79.0,-540.0,-378.0,49.0,-908.0,126.0,3
217,15.0,-233.0,9.0,-109.0,-535.0,-378.0,53.0,-902.0,128.0,3
218,20.0,-228.0,10.0,-126.0,-529.0,-374.0,61.0,-885.0,133.0,3
219,21.0,-228.0,11.0,-132.0,-514.0,-373.0,62.0,-882.0,133.0,3
220,23.0,-226.0,11.0,-132.0,-491.0,-368.0,71.0,-882.0,128.0,3
221,24.0,-224.0,9.0,-122.0,-467.0,-370.0,70.0,-871.0,126.0,3
222,27.0,-225.0,8.0,-110.0,-441.0,-369.0,81.0,-869.0,120.0,3
223,25.0,-224.0,6.0,-99.0,-416.0,-372.0,82.0,-873.0,107.0,3
224,29.0,-224.0,3.0,-92.0,-391.0,-371.0,92.0,-873.0,111.0,3
225,32.0,-221.0,3.0,-83.0,-368.0,-374.0,102.0,-867.0,104.0,3
226,34.0,-221.0,1.0,-74.0,-348.0,-371.0,105.0,-868.0,103.0,3
227,32.0,-220.0,1.0,-65.0,-328.0,-370.0,110.0,-866.0,99.0,3
228,35.0,-221.0,-2.0,-57.0,-309.0,-364.0,111.0,-857.0,95.0,3
229,36.0,-220.0,0.0,-49.0,-296.0,-359.0,119.0,-857.0,86.0,3
230,39.0,-219.0,-3.0,-44.0,-283.0,-349.0,120.0,-856.0,86.0,3
231,37.0,-218.0,-6.0,-46.0,-272.0,-342.0,122.0,-853.0,75.0,3
232,33.0,-216.0,-9.0,-54.0,-262.0,-330.0,119.0,-855.0,54.0,3
233,33.0,-218.0,-10.0,-71.0,-256.0,-316.0,105.0,-854.0,52.0,3
234,30.0,-220.0,-8.0,-95.0,-252.0,-294.0,106.0,-867.0,45.0,3
235,30.0,-221.0,-12.0,-131.0,-250.0,-277.0,101.0,-877.0,44.0,3
236,28.0,-227.0,-11.0,-166.0,-250.0,-257.0,95.0,-890.0,51.0,3
237,29.0,-233.0,-5.0,-200.0,-253.0,-241.0,87.0,-899.0,62.0,3
238,27.0,-236.0,-4.0,-228.0,-253.0,-218.0,83.0,-916.0,73.0,3
239,27.0,-240.0,0.0,-250.0,-251.0,-199.0,84.0,-929.0,90.0,3
240,27.0,-245.0,4.0,-266.0,-245.0,-180.0,80.0,-941.0,110.0,3
241,26.0,-250.0,10.0,-274.0,-234.0,-160.0,77.0,-968.0,125.0,3
242,26.0,-258.0,13.0,-275.0,-219.0,-134.0,78.0,-1000.0,140.0,3
243,22.0,-265.0,17.0,-266.0,-200.0,-110.0,67.0,-1031.0,160.0,3
244,23.0,-276.0,19.0,-249.0,-179.0,-79.0,67.0,-1065.0,180.0,3
245,22.0,-289.0,29.0,-223.0,-153.0,-49.0,71.0,-1110.0,190.0,3
246,24.0,-295.0,27.0,-183.0,-129.0,-15.0,66.0,-1158.0,202.0,3
247,25.0,-307.0,32.0,-138.0,-106.0,19.0,69.0,-1185.0,212.0,3
248,25.0,-320.0,35.0,-81.0,-84.0,48.0,68.0,-1222.0,218.0,3
249,24.0,-327.0,34.0,-3.0,-76.0,72.0,76.0,-1258.0,228.0,3
250,24.0,-334.0,36.0,68.0,-78.0,93.0,75.0,-1287.0,239.0,3
251,25.0,-344.0,40.0,148.0,-89.0,107.0,78.0,-1315.0,250.0,3
252,23.0,-347.0,48.0,230.0,-108.0,123.0,68.0,-1343.0,262.0,3
253,23.0,-354.0,50.0,308.0,-134.0,131.0,66.0,-1358.0,269.0,3
254,20.0,-360.0,45.0,380.0,-162.0,141.0,60.0,-1377.0,273.0,3
255,19.0,-359.0,48.0,444.0,-191.0,146.0,58.0,-1390.0,271.0,3
256,15.0,-360.0,40.0,499.0,-216.0,155.0,39.0,-1383.0,262.0,3
257,10.0,-354.0,39.0,542.0,-233.0,161.0,25.0,-1377.0,243.0,3
258,9.0,-349.0,37.0,566.0,-242.0,173.0,10.0,-1351.0,234.0,3
259,4.0,-340.0,32.0,571.0,-248.0,182.0,-9.0,-1332.0,214.0,3
260,-1.0,-327.0,26.0,552.0,-251.0,191.0,-27.0,-1271.0,197.0,3
261,-6.0,-314.0,21.0,515.0,-252.0,205.0,-47.0,-1221.0,187.0,3
262,-10.0,-303.0,24.0,448.0,-256.0,218.0,-60.0,-1181.0,176.0,3
263,-16.0,-291.0,20.0,370.0,-264.0,229.0,-78.0,-1143.0,168.0,3
264,-13.0,-280.0,21.0,281.0,-278.0,241.0,-88.0,-1100.0,169.0,3
265,-17.0,-270.0,17.0,183.0,-298.0,253.0,-88.0,-1068.0,169.0,3
266,-18.0,-260.0,23.0,77.0,-321.0,267.0,-88.0,-1039.0,179.0,3
267,-15.0,-258.0,30.0,-26.0,-345.0,274.0,-75.0,-1019.0,190.0,3
268,-12.0,-256.0,31.0,-125.0,-370.0,283.0,-74.0,-994.0,205.0,3
269,-12.0,-255.0,32.0,-212.0,-395.0,293.0,-65.0,-988.0,214.0,3
270,-11.0,-253.0,28.0,-284.0,-416.0,309.0,-60.0,-978.0,209.0,3
271,-6.0,-252.0,23.0,-344.0,-433.0,324.0,-35.0,-988.0,190.0,3
272,4.0,-260.0,20.0,-391.0,-441.0,341.0,-6.0,-1004.0,168.0,3
273,18.0,-268.0,14.0,-420.0,-437.0,351.0,35.0,-1026.0,150.0,3
274,23.0,-281.0,12.0,-413.0,-416.0,359.0,59.0,-1078.0,132.0,3
275,25.0,-299.0,9.0,-346.0,-380.0,356.0,71.0,-1145.0,107.0,3
276,30.0,-325.0,-10.0,-159.0,-357.0,346.0,99.0,-1221.0,58.0,3
277,46.0,-343.0,-38.0,77.0,-350.0,334.0,150.0,-1288.0,-41.0,3
278,60.0,-346.0,-67.0,328.0,-357.0,320.0,204.0,-1333.0,-154.0,3
279,72.0,-339.0,-100.0,538.0,-367.0,313.0,246.0,-1303.0,-287.0,3
280,77.0,-324.0,-119.0,668.0,-367.0,304.0,267.0,-1248.0,-388.0,3
281,83.0,-294.0,-135.0,715.0,-349.0,289.0,288.0,-1163.0,-465.0,3
282,85.0,-262.0,-144.0,698.0,-322.0,264.0,295.0,-1051.0,-487.0,3
283,83.0,-237.0,-146.0,640.0,-297.0,229.0,291.0,-947.0,-492.0,3
284,76.0,-208.0,-143.0,549.0,-280.0,180.0,279.0,-861.0,-486.0,3
285,73.0,-198.0,-149.0,429.0,-263.0,123.0,259.0,-821.0,-504.0,3
286,68.0,-197.0,-148.0,277.0,-236.0,58.0,241.0,-806.0,-514.0,3
287,65.0,-196.0,-146.0,107.0,-199.0,-24.0,229.0,-801.0,-496.0,3
288,63.0,-194.0,-135.0,-54.0,-152.0,-108.0,219.0,-781.0,-469.0,3
289,59.0,-189.0,-130.0,-191.0,-87.0,-209.0,199.0,-755.0,-422.0,3
290,53.0,-190.0,-118.0,-337.0,-34.0,-277.0,184.0,-743.0,-382.0,3
291,49.0,-183.0,-103.0,-447.0,14.0,-335.0,158.0,-740.0,-323.0,3
292,42.0,-184.0,-90.0,-536.0,60.0,-377.0,134.0,-730.0,-248.0,3
293,29.0,-183.0,-67.0,-592.0,96.0,-408.0,98.0,-737.0,-179.0,3
294,16.0,-195.0,-49.0,-610.0,122.0,-427.0,55.0,-748.0,-111.0,3
295,3.0,-204.0,-36.0,-588.0,137.0,-435.0,-5.0,-784.0,-54.0,3
296,-11.0,-214.0,-20.0,-524.0,144.0,-433.0,-46.0,-810.0,1.0,3
297,-14.0,-224.0,-12.0,-429.0,140.0,-425.0,-74.0,-847.0,39.0,3
298,-18.0,-233.0,0.0,-313.0,129.0,-405.0,-86.0,-883.0,78.0,3
299,-15.0,-240.0,4.0,-187.0,122.0,-375.0,-80.0,-912.0,102.0,3
300,-11.0,-247.0,5.0,-54.0,122.0,-339.0,-71.0,-945.0,103.0,3
301,-11.0,-259.0,2.0,62.0,133.0,-302.0,-60.0,-990.0,97.0,3
302,-10.0,-265.0,3.0,152.0,149.0,-250.0,-54.0,-1024.0,96.0,3
303,-10.0,-271.0,0.0,220.0,173.0,-201.0,-62.0,-1043.0,93.0,3
304,-11.0,-274.0,-2.0,293.0,189.0,-142.0,-74.0,-1063.0,93.0,3
305,-19.0,-271.0,-6.0,351.0,201.0,-76.0,-95.0,-1054.0,78.0,3
306,-27.0,-270.0,-8.0,409.0,206.0,-12.0,-112.0,-1055.0,61.0,3
307,-28.0,-270.0,-8.0,464.0,206.0,52.0,-133.0,-1053.0,48.0,3
308,-32.0,-267.0,-21.0,513.0,204.0,122.0,-155.0,-1042.0,18.0,3
309,-36.0,-261.0,-27.0,548.0,206.0,195.0,-161.0,-1031.0,-8.0,3
310,-37.0,-256.0,-37.0,564.0,214.0,266.0,-170.0,-1009.0,-48.0,3
311,-38.0,-251.0,-45.0,564.0,227.0,325.0,-170.0,-976.0,-76.0,3
312,-37.0,-244.0,-52.0,548.0,238.0,376.0,-171.0,-956.0,-102.0,3
313,-37.0,-241.0,-55.0,514.0,253.0,418.0,-166.0,-932.0,-127.0,3
314,-31.0,-232.0,-60.0,460.0,265.0,449.0,-146.0,-928.0,-155.0,3
315,-30.0,-230.0,-70.0,375.0,278.0,470.0,-137.0,-916.0,-182.0,3
316,-28.0,-231.0,-70.0,261.0,296.0,474.0,-126.0,-917.0,-186.0,3
317,-26.0,-230.0,-68.0,104.0,320.0,465.0,-125.0,-919.0,-181.0,3
318,-26.0,-232.0,-62.0,-32.0,338.0,450.0,-129.0,-917.0,-149.0,3
319,-27.0,-228.0,-51.0,-155.0,350.0,436.0,-124.0,-905.0,-124.0,3
320,-19.0,-236.0,-52.0,-267.0,354.0,418.0,-102.0,-921.0,-111.0,3
321,-16.0,-238.0,-39.0,-373.0,347.0,390.0,-92.0,-926.0,-69.0,3
322,-18.0,-239.0,-30.0,-457.0,328.0,359.0,-87.0,-933.0,-30.0,3
323,-15.0,-237.0,-16.0,-508.0,302.0,335.0,-77.0,-925.0,4.0,3
324,-7.0,-235.0,-14.0,-530.0,278.0,312.0,-46.0,-910.0,29.0,3
325,-5.0,-232.0,-10.0,-531.0,256.0,285.0,-35.0,-895.0,60.0,3
326,-7.0,-229.0,-7.0,-513.0,238.0,262.0,-36.0,-885.0,73.0,3
327,-3.0,-228.0,2.0,-482.0,223.0,242.0,-35.0,-883.0,88.0,3
328,-8.0,-231.0,0.0,-444.0,208.0,217.0,-38.0,-888.0,98.0,3
329,-8.0,-234.0,7.0,-402.0,198.0,193.0,-56.0,-896.0,112.0,3
330,-12.0,-234.0,5.0,-349.0,186.0,175.0,-60.0,-903.0,114.0,3
331,-11.0,-240.0,7.0,-278.0,180.0,167.0,-60.0,-907.0,118.0,3
332,-12.0,-237.0,4.0,-219.0,178.0,159.0,-62.0,-914.0,118.0,3
333,-12.0,-234.0,8.0,-162.0,180.0,156.0,-66.0,-914.0,116.0,3
334,-14.0,-238.0,5.0,-111.0,185.0,153.0,-63.0,-912.0,119.0,3
335,-12.0,-238.0,8.0,-66.0,194.0,157.0,-68.0,-913.0,113.0,3
336,-13.0,-235.0,9.0,-34.0,209.0,157.0,-67.0,-909.0,105.0,3
337,-12.0,-231.0,1.0,-12.0,228.0,158.0,-70.0,-905.0,113.0,3
338,-14.0,-228.0,7.0,-3.0,249.0,163.0,-71.0,-890.0,112.0,3
339,-12.0,-225.0,4.0,0.0,273.0,168.0,-79.0,-881.0,105.0,3
340,-12.0,-222.0,3.0,-9.0,299.0,171.0,-75.0,-865.0,105.0,3
341,-18.0,-220.0,6.0,-25.0,327.0,176.0,-93.0,-859.0,104.0,3
342,-23.0,-216.0,8.0,-50.0,350.0,181.0,-102.0,-850.0,116.0,3
343,-24.0,-213.0,10.0,-81.0,373.0,195.0,-114.0,-842.0,124.0,3
344,-28.0,-218.0,9.0,-112.0,392.0,208.0,-119.0,-854.0,134.0,3
345,-26.0,-221.0,11.0,-151.0,406.0,224.0,-127.0,-871.0,140.0,3
346,-27.0,-231.0,22.0,-184.0,414.0,234.0,-132.0,-903.0,157.0,3
347,-31.0,-245.0,23.0,-208.0,417.0,249.0,-136.0,-930.0,180.0,3
348,-31.0,-254.0,27.0,-216.0,416.0,260.0,-138.0,-967.0,197.0,3
349,-31.0,-261.0,31.0,-209.0,411.0,275.0,-139.0,-1016.0,211.0,3
350,-32.0,-269.0,36.0,-183.0,400.0,286.0,-148.0,-1042.0,222.0,3
351,-32.0,-274.0,33.0,-144.0,383.0,297.0,-134.0,-1067.0,225.0,3
352,-28.0,-281.0,37.0,-94.0,363.0,302.0,-124.0,-1088.0,220.0,3
353,-23.0,-286.0,37.0,-47.0,342.0,302.0,-114.0,-1097.0,219.0,3
354,-23.0,-285.0,37.0,-3.0,316.0,294.0,-114.0,-1094.0,233.0,3
355,-21.0,-283.0,37.0,38.0,280.0,289.0,-98.0,-1098.0,232.0,3
356,-15.0,-282.0,39.0,76.0,244.0,279.0,-91.0,-1091.0,230.0,3
357,-12.0,-277.0,31.0,107.0,208.0,262.0,-77.0,-1069.0,232.0,3
358,-13.0,-272.0,37.0,124.0,172.0,234.0,-73.0,-1053.0,233.0,3
359,-17.0,-266.0,39.0,122.0,147.0,203.0,-84.0,-1046.0,247.0,3
360,-20.0,-269.0,44.0,108.0,127.0,157.0,-95.0,-1038.0,262.0,3
361,-23.0,-269.0,48.0,84.0,121.0,102.0,-111.0,-1044.0,276.0,3
362,-24.0,-272.0,55.0,47.0,123.0,37.0,-118.0,-1061.0,297.0,3
363,-21.0,-277.0,60.0,6.0,134.0,-33.0,-111.0,-1078.0,320.0,3
364,-15.0,-288.0,56.0,-27.0,157.0,-109.0,-96.0,-1108.0,316.0,3
365,-8.0,-297.0,55.0,-48.0,187.0,-185.0,-71.0,-1144.0,297.0,3
366,-11.0,-303.0,40.0,-52.0,227.0,-264.0,-55.0,-1167.0,264.0,3
367,-12.0,-308.0,31.0,-31.0,271.0,-335.0,-78.0,-1172.0,218.0,3
368,-27.0,-305.0,15.0,16.0,306.0,-396.0,-109.0,-1170.0,162.0,3
369,-32.0,-307.0,7.0,87.0,317.0,-440.0,-139.0,-1167.0,105.0,3
370,-39.0,-305.0,-10.0,172.0,291.0,-478.0,-162.0,-1173.0,53.0,3
371,-48.0,-313.0,-23.0,280.0,229.0,-496.0,-200.0,-1184.0,9.0,3
372,-57.0,-321.0,-35.0,465.0,168.0,-513.0,-234.0,-1211.0,-52.0,3
373,-61.0,-324.0,-62.0,651.0,112.0,-523.0,-250.0,-1240.0,-157.0,3
374,-59.0,-320.0,-100.0,814.0,70.0,-539.0,-256.0,-1231.0,-293.0,3
375,-57.0,-300.0,-135.0,898.0,38.0,-546.0,-251.0,-1186.0,-451.0,3
376,-52.0,-275.0,-166.0,882.0,16.0,-541.0,-234.0,-1110.0,-559.0,3
377,-43.0,-247.0,-174.0,778.0,5.0,-514.0,-203.0,-1013.0,-602.0,3
378,-38.0,-228.0,-173.0,631.0,-3.0,-473.0,-167.0,-916.0,-581.0,3
379,-24.0,-201.0,-157.0,468.0,-18.0,-417.0,-134.0,-845.0,-547.0,3
380,-19.0,-197.0,-143.0,297.0,-41.0,-360.0,-104.0,-806.0,-498.0,3
381,-18.0,-187.0,-123.0,128.0,-65.0,-300.0,-84.0,-764.0,-430.0,3
382,-12.0,-181.0,-107.0,-32.0,-91.0,-251.0,-67.0,-729.0,-360.0,3
383,-10.0,-179.0,-90.0,-165.0,-119.0,-210.0,-48.0,-709.0,-290.0,3
384,-4.0,-172.0,-79.0,-263.0,-152.0,-179.0,-32.0,-688.0,-211.0,3
385,5.0,-167.0,-61.0,-329.0,-187.0,-155.0,9.0,-681.0,-171.0,3
386,15.0,-173.0,-51.0,-353.0,-205.0,-137.0,29.0,-673.0,-134.0,3
387,17.0,-174.0,-49.0,-357.0,-218.0,-103.0,57.0,-681.0,-99.0,3
388,21.0,-177.0,-44.0,-339.0,-231.0,-61.0,66.0,-690.0,-75.0,3
389,26.0,-184.0,-35.0,-299.0,-249.0,-5.0,69.0,-713.0,-54.0,3
390,27.0,-192.0,-34.0,-243.0,-273.0,56.0,85.0,-743.0,-46.0,3
391,29.0,-196.0,-34.0,-185.0,-301.0,124.0,107.0,-779.0,-46.0,3
392,32.0,-207.0,-34.0,-133.0,-325.0,184.0,114.0,-805.0,-55.0,3
393,39.0,-215.0,-38.0,-92.0,-342.0,244.0,125.0,-834.0,-58.0,3
394,40.0,-224.0,-40.0,-67.0,-347.0,285.0,132.0,-867.0,-65.0,3
395,41.0,-231.0,-40.0,-64.0,-340.0,310.0,133.0,-898.0,-70.0,3
396,36.0,-240.0,-33.0,-90.0,-322.0,309.0,123.0,-937.0,-60.0,3
397,37.0,-253.0,-31.0,-140.0,-303.0,296.0,112.0,-980.0,-28.0,3
398,29.0,-262.0,-27.0,-194.0,-290.0,261.0,86.0,-1038.0,2.0,3
399,21.0,-272.0,-13.0,-254.0,-289.0,232.0,65.0,-1090.0,36.0,3
400,16.0,-297.0,-9.0,-293.0,-305.0,193.0,47.0,-1148.0,55.0,3
401,9.0,-311.0,-2.0,-323.0,-339.0,139.0,23.0,-1201.0,78.0,3
402,4.0,-322.0,-1.0,-341.0,-385.0,70.0,14.0,-1255.0,73.0,3
403,8.0,-332.0,-7.0,-357.0,-437.0,-1.0,5.0,-1290.0,70.0,3
404,5.0,-335.0,-10.0,-371.0,-474.0,-68.0,-6.0,-1299.0,53.0,3
405,4.0,-342.0,-15.0,-381.0,-494.0,-117.0,0.0,-1326.0,38.0,3
406,7.0,-344.0,-16.0,-394.0,-495.0,-165.0,0.0,-1344.0,28.0,3
407,3.0,-353.0,-18.0,-408.0,-475.0,-204.0,-19.0,-1374.0,20.0,3
408,3.0,-364.0,-24.0,-426.0,-431.0,-240.0,-23.0,-1415.0,1.0,3
409,0.0,-375.0,-32.0,-455.0,-364.0,-278.0,-34.0,-1450.0,-22.0,3
410,-1.0,-392.0,-37.0,-496.0,-281.0,-328.0,-39.0,-1503.0,-52.0,3
411,-1.0,-399.0,-48.0,-551.0,-194.0,-411.0,-45.0,-1550.0,-92.0,3
412,-8.0,-411.0,-47.0,-619.0,-101.0,-490.0,-74.0,-1577.0,-86.0,3
413,-16.0,-414.0,-43.0,-677.0,-48.0,-527.0,-99.0,-1594.0,-74.0,3
414,-6.0,-423.0,-50.0,-704.0,-26.0,-535.0,-41.0,-1644.0,-86.0,3
415,3.0,-418.0,-39.0,-736.0,-20.0,-542.0,-22.0,-1619.0,-49.0,3
416,3.0,-409.0,-28.0,-733.0,-38.0,-531.0,-5.0,-1578.0,-16.0,3
417,8.0,-401.0,-17.0,-689.0,-86.0,-484.0,4.0,-1531.0,13.0,3
418,8.0,-385.0,-13.0,-621.0,-152.0,-408.0,16.0,-1493.0,50.0,3
419,13.0,-367.0,4.0,-552.0,-218.0,-316.0,32.0,-1427.0,95.0,3
420,18.0,-353.0,15.0,-469.0,-280.0,-232.0,51.0,-1369.0,144.0,3
421,19.0,-336.0,23.0,-368.0,-330.0,-166.0,55.0,-1298.0,175.0,3
422,18.0,-322.0,30.0,-267.0,-358.0,-118.0,44.0,-1247.0,207.0,3
423,19.0,-309.0,38.0,-172.0,-361.0,-81.0,58.0,-1193.0,227.0,3
424,24.0,-295.0,39.0,-80.0,-348.0,-66.0,73.0,-1133.0,247.0,3
425,23.0,-280.0,40.0,7.0,-323.0,-60.0,62.0,-1087.0,262.0,3
426,15.0,-267.0,45.0,102.0,-272.0,-59.0,42.0,-1029.0,257.0,3
427,17.0,-261.0,45.0,171.0,-229.0,-55.0,43.0,-1011.0,263.0,3
428,21.0,-258.0,45.0,223.0,-194.0,-53.0,54.0,-992.0,262.0,3
429,25.0,-256.0,45.0,253.0,-169.0,-54.0,82.0,-983.0,261.0,3
430,30.0,-256.0,47.0,266.0,-154.0,-69.0,87.0,-982.0,264.0,3
431,34.0,-251.0,47.0,268.0,-148.0,-81.0,109.0,-973.0,273.0,3
432,34.0,-253.0,46.0,277.0,-154.0,-96.0,112.0,-966.0,264.0,3
433,26.0,-245.0,43.0,294.0,-165.0,-102.0,93.0,-948.0,263.0,3
434,23.0,-242.0,42.0,326.0,-175.0,-108.0,76.0,-927.0,239.0,3
435,20.0,-237.0,30.0,360.0,-185.0,-99.0,68.0,-916.0,214.0,3
436,24.0,-231.0,28.0,395.0,-191.0,-96.0,86.0,-891.0,192.0,3
437,23.0,-218.0,23.0,438.0,-194.0,-94.0,78.0,-854.0,184.0,3
438,30.0,-207.0,21.0,493.0,-187.0,-90.0,93.0,-822.0,171.0,3
439,35.0,-198.0,16.0,557.0,-167.0,-89.0,112.0,-765.0,161.0,3
440,30.0,-186.0,12.0,629.0,-140.0,-108.0,110.0,-722.0,137.0,3
441,34.0,-176.0,8.0,670.0,-111.0,-124.0,110.0,-669.0,109.0,3
442,31.0,-155.0,0.0,692.0,-84.0,-137.0,107.0,-608.0,83.0,3
443,34.0,-139.0,-18.0,689.0,-69.0,-134.0,112.0,-561.0,19.0,3
444,35.0,-122.0,-33.0,648.0,-67.0,-119.0,114.0,-512.0,-27.0,3
445,36.0,-124.0,-44.0,576.0,-79.0,-84.0,135.0,-503.0,-72.0,3
446,37.0,-118.0,-51.0,478.0,-107.0,-43.0,134.0,-486.0,-106.0,3
447,32.0,-117.0,-51.0,390.0,-132.0,10.0,116.0,-468.0,-119.0,3
448,29.0,-112.0,-54.0,336.0,-152.0,63.0,100.0,-444.0,-125.0,3
449,19.0,-106.0,-55.0,325.0,-162.0,113.0,66.0,-422.0,-131.0,3
450,13.0,-102.0,-56.0,342.0,-168.0,156.0,34.0,-409.0,-132.0,3
451,6.0,-99.0,-62.0,375.0,-168.0,196.0,9.0,-400.0,-143.0,3
452,-2.0,-100.0,-60.0,405.0,-166.0,223.0,-16.0,-387.0,-145.0,3
453,-11.0,-91.0,-58.0,443.0,-175.0,238.0,-45.0,-368.0,-132.0,3
454,-12.0,-88.0,-55.0,475.0,-192.0,237.0,-65.0,-358.0,-133.0,3
455,-16.0,-89.0,-58.0,501.0,-211.0,226.0,-82.0,-341.0,-133.0,3
456,-23.0,-84.0,-59.0,518.0,-229.0,201.0,-107.0,-335.0,-150.0,3
457,-28.0,-75.0,-59.0,534.0,-239.0,186.0,-120.0,-300.0,-139.0,3
458,-31.0,-68.0,-53.0,566.0,-247.0,173.0,-142.0,-267.0,-140.0,3
459,-40.0,-58.0,-62.0,608.0,-251.0,172.0,-163.0,-228.0,-161.0,3
460,-43.0,-57.0,-75.0,647.0,-251.0,186.0,-164.0,-233.0,-218.0,3
461,-35.0,-66.0,-100.0,673.0,-241.0,215.0,-157.0,-263.0,-284.0,3
462,-23.0,-72.0,-120.0,691.0,-220.0,239.0,-115.0,-288.0,-376.0,3
463,-12.0,-85.0,-144.0,714.0,-182.0,264.0,-76.0,-340.0,-478.0,3
464,-11.0,-106.0,-171.0,749.0,-129.0,262.0,-68.0,-395.0,-555.0,3
465,-12.0,-131.0,-181.0,815.0,-58.0,238.0,-81.0,-490.0,-611.0,3
466,-22.0,-159.0,-169.0,918.0,42.0,161.0,-116.0,-584.0,-602.0,3
467,-35.0,-182.0,-147.0,1097.0,122.0,82.0,-159.0,-682.0,-515.0,3
468,-38.0,-194.0,-137.0,1281.0,171.0,2.0,-161.0,-747.0,-437.0,3
469,-26.0,-220.0,-122.0,1450.0,185.0,-81.0,-108.0,-874.0,-408.0,3
470,-7.0,-252.0,-133.0,1507.0,149.0,-219.0,-25.0,-1022.0,-454.0,3
471,7.0,-261.0,-162.0,1346.0,82.0,-403.0,12.0,-1095.0,-569.0,3
472,0.0,-247.0,-183.0,935.0,27.0,-578.0,-19.0,-1056.0,-635.0,3
473,-10.0,-242.0,-186.0,382.0,24.0,-677.0,-76.0,-1021.0,-647.0,3
474,-21.0,-247.0,-182.0,-186.0,96.0,-727.0,-133.0,-1032.0,-643.0,3
475,-26.0,-273.0,-194.0,-724.0,206.0,-756.0,-139.0,-1113.0,-667.0,3
476,-23.0,-323.0,-206.0,-1271.0,295.0,-812.0,-125.0,-1287.0,-722.0,3
477,-26.0,-367.0,-207.0,-1844.0,349.0,-912.0,-146.0,-1501.0,-750.0,3
478,-26.0,-434.0,-201.0,-2406.0,390.0,-1027.0,-152.0,-1730.0,-714.0,3
479,-11.0,-524.0,-169.0,-2903.0,463.0,-1087.0,-110.0,-2044.0,-609.0,3
480,12.0,-614.0,-115.0,-3292.0,616.0,-1060.0,-39.0,-2336.0,-347.0,3
481,63.0,-704.0,-47.0,-3470.0,755.0,-929.0,193.0,-2672.0,-80.0,3
482,107.0,-769.0,31.0,-3239.0,852.0,-779.0,346.0,-2835.0,218.0,3
483,115.0,-798.0,102.0,-2590.0,904.0,-620.0,394.0,-2922.0,458.0,3
484,103.0,-783.0,138.0,-1607.0,908.0,-470.0,361.0,-2856.0,617.0,3
485,90.0,-739.0,147.0,-463.0,858.0,-349.0,308.0,-2668.0,669.0,3
486,77.0,-662.0,128.0,666.0,772.0,-273.0,267.0,-2406.0,612.0,3
487,72.0,-567.0,101.0,1632.0,695.0,-199.0,243.0,-2099.0,498.0,3
488,57.0,-464.0,69.0,2340.0,649.0,-134.0,195.0,-1764.0,365.0,3
489,32.0,-368.0,35.0,2750.0,618.0,-51.0,119.0,-1459.0,237.0,3
490,8.0,-280.0,9.0,2861.0,568.0,44.0,27.0,-1160.0,140.0,3
491,-10.0,-202.0,-19.0,2716.0,481.0,165.0,-23.0,-897.0,61.0,3
492,-12.0,-148.0,-33.0,2376.0,355.0,293.0,-57.0,-707.0,-13.0,3
493,-15.0,-112.0,-43.0,1893.0,214.0,448.0,-66.0,-555.0,-60.0,3
494,-15.0,-93.0,-50.0,1212.0,58.0,578.0,-72.0,-467.0,-114.0,3
495,-14.0,-89.0,-57.0,618.0,-32.0,718.0,-74.0,-449.0,-138.0,3
496,-13.0,-106.0,-58.0,28.0,-68.0,845.0,-86.0,-497.0,-144.0,3
497,-15.0,-126.0,-56.0,-531.0,-55.0,952.0,-86.0,-566.0,-130.0,3
498,-12.0,-158.0,-47.0,-1039.0,-1.0,1022.0,-76.0,-682.0,-95.0,3
499,-12.0,-194.0,-26.0,-1470.0,83.0,1049.0,-72.0,-793.0,-18.0,3
500,-13.0,-226.0,6.0,-1788.0,178.0,1039.0,-89.0,-880.0,99.0,3
501,-18.0,-250.0,33.0,-1966.0,275.0,1013.0,-101.0,-947.0,205.0,3
502,-19.0,-266.0,59.0,-2004.0,367.0,970.0,-102.0,-1010.0,295.0,3
503,-19.0,-276.0,73.0,-1923.0,456.0,926.0,-103.0,-1045.0,374.0,3
504,-16.0,-288.0,86.0,-1746.0,538.0,873.0,-104.0,-1066.0,438.0,3
505,-12.0,-292.0,98.0,-1504.0,613.0,825.0,-91.0,-1091.0,483.0,3
506,-6.0,-296.0,104.0,-1221.0,678.0,778.0,-60.0,-1091.0,509.0,3
507,1.0,-292.0,107.0,-921.0,731.0,716.0,-26.0,-1094.0,510.0,3
508,4.0,-288.0,102.0,-582.0,780.0,657.0,-9.0,-1096.0,494.0,3
509,8.0,-282.0,95.0,-343.0,807.0,605.0,5.0,-1070.0,469.0,3
510,15.0,-276.0,86.0,-160.0,823.0,550.0,33.0,-1057.0,433.0,3
511,21.0,-275.0,77.0,-37.0,831.0,497.0,58.0,-1051.0,392.0,3
512,24.0,-268.0,75.0,26.0,824.0,441.0,75.0,-1050.0,373.0,3
513,28.0,-271.0,70.0,43.0,802.0,390.0,91.0,-1049.0,355.0,3
514,28.0,-271.0,65.0,32.0,763.0,345.0,103.0,-1054.0,333.0,3
515,35.0,-271.0,58.0,-5.0,707.0,315.0,124.0,-1053.0,313.0,3
516,38.0,-269.0,55.0,-52.0,638.0,295.0,132.0,-1050.0,306.0,3
517,39.0,-264.0,55.0,-87.0,560.0,286.0,143.0,-1040.0,302.0,3
518,40.0,-260.0,54.0,-106.0,484.0,278.0,145.0,-1025.0,295.0,3
519,47.0,-258.0,55.0,-106.0,416.0,275.0,156.0,-997.0,292.0,3
520,43.0,-244.0,55.0,-94.0,362.0,261.0,155.0,-948.0,294.0,3
521,42.0,-235.0,53.0,-73.0,320.0,231.0,142.0,-902.0,285.0,3
522,35.0,-217.0,49.0,-41.0,294.0,187.0,126.0,-836.0,269.0,3
523,22.0,-201.0,43.0,-17.0,266.0,137.0,66.0,-770.0,245.0,3
524,8.0,-186.0,32.0,7.0,231.0,85.0,13.0,-719.0,209.0,3
525,-5.0,-179.0,17.0,26.0,189.0,33.0,-27.0,-678.0,173.0,3
526,-18.0,-165.0,7.0,50.0,143.0,-26.0,-78.0,-655.0,115.0,3
527,-27.0,-163.0,-11.0,80.0,103.0,-89.0,-115.0,-646.0,52.0,3
528,-36.0,-166.0,-33.0,101.0,68.0,-164.0,-146.0,-636.0,-20.0,3
529,-38.0,-159.0,-53.0,120.0,45.0,-241.0,-165.0,-610.0,-84.0,3
530,-38.0,-153.0,-60.0,150.0,37.0,-318.0,-162.0,-590.0,-135.0,3
531,-36.0,-150.0,-67.0,193.0,53.0,-383.0,-154.0,-570.0,-180.0,3
532,-28.0,-140.0,-69.0,254.0,90.0,-442.0,-146.0,-523.0,-205.0,3
533,-29.0,-122.0,-80.0,341.0,143.0,-488.0,-127.0,-477.0,-231.0,3
534,-30.0,-102.0,-92.0,452.0,204.0,-544.0,-129.0,-405.0,-262.0,3
535,-36.0,-80.0,-109.0,568.0,271.0,-575.0,-144.0,-335.0,-338.0,3
536,-45.0,-55.0,-127.0,682.0,305.0,-601.0,-191.0,-231.0,-425.0,3
537,-56.0,-40.0,-156.0,740.0,305.0,-611.0,-227.0,-183.0,-545.0,3
538,-67.0,-30.0,-192.0,739.0,271.0,-617.0,-251.0,-150.0,-673.0,3
539,-70.0,-30.0,-212.0,686.0,197.0,-629.0,-266.0,-136.0,-772.0,3
540,-66.0,-37.0,-235.0,634.0,110.0,-654.0,-257.0,-165.0,-850.0,3
541,-65.0,-56.0,-235.0,630.0,40.0,-689.0,-254.0,-229.0,-863.0,3
542,-68.0,-81.0,-221.0,706.0,-13.0,-729.0,-275.0,-306.0,-801.0,3
543,-69.0,-105.0,-195.0,866.0,-89.0,-736.0,-270.0,-382.0,-709.0,3
544,-54.0,-122.0,-182.0,1054.0,-203.0,-706.0,-222.0,-465.0,-645.0,3
545,-38.0,-136.0,-165.0,1181.0,-315.0,-651.0,-178.0,-540.0,-594.0,3
546,-45.0,-143.0,-160.0,1181.0,-370.0,-605.0,-191.0,-599.0,-559.0,3
547,-72.0,-154.0,-161.0,1045.0,-334.0,-563.0,-283.0,-647.0,-548.0,3
548,-99.0,-149.0,-159.0,781.0,-210.0,-473.0,-419.0,-658.0,-543.0,3
549,-123.0,-148.0,-151.0,338.0,-15.0,-325.0,-504.0,-662.0,-508.0,3
550,-121.0,-140.0,-125.0,-117.0,113.0,-127.0,-491.0,-642.0,-416.0,3
551,-99.0,-142.0,-93.0,-610.0,186.0,97.0,-401.0,-636.0,-273.0,3
552,-69.0,-156.0,-43.0,-1056.0,254.0,281.0,-289.0,-652.0,-78.0,3
553,-38.0,-191.0,6.0,-1341.0,366.0,432.0,-188.0,-736.0,103.0,3
554,-5.0,-242.0,32.0,-1424.0,484.0,604.0,-34.0,-904.0,206.0,3
555,28.0,-317.0,33.0,-1349.0,487.0,832.0,111.0,-1169.0,229.0,3
556,71.0,-394.0,21.0,-1201.0,310.0,1062.0,278.0,-1460.0,179.0,3
557,104.0,-448.0,7.0,-1060.0,-7.0,1211.0,423.0,-1718.0,106.0,3
558,134.0,-490.0,-1.0,-957.0,-349.0,1258.0,511.0,-1885.0,74.0,3
559,147.0,-517.0,8.0,-892.0,-594.0,1248.0,536.0,-1996.0,110.0,3
560,141.0,-543.0,41.0,-826.0,-713.0,1218.0,517.0,-2068.0,245.0,3
561,110.0,-569.0,73.0,-700.0,-776.0,1185.0,414.0,-2144.0,362.0,3
562,65.0,-580.0,85.0,-487.0,-852.0,1119.0,255.0,-2187.0,419.0,3
563,34.0,-589.0,70.0,-119.0,-915.0,1053.0,119.0,-2200.0,367.0,3
564,19.0,-579.0,36.0,244.0,-950.0,982.0,28.0,-2181.0,247.0,3
565,24.0,-556.0,5.0,595.0,-928.0,886.0,44.0,-2111.0,111.0,3
566,28.0,-528.0,-25.0,863.0,-849.0,739.0,51.0,-1995.0,-17.0,3
567,35.0,-476.0,-55.0,993.0,-713.0,532.0,66.0,-1834.0,-130.0,3
568,40.0,-430.0,-73.0,961.0,-541.0,285.0,86.0,-1677.0,-196.0,3
569,39.0,-386.0,-76.0,777.0,-365.0,19.0,100.0,-1529.0,-209.0,3
570,43.0,-350.0,-73.0,487.0,-213.0,-257.0,117.0,-1417.0,-199.0,3
571,45.0,-325.0,-65.0,130.0,-84.0,-521.0,126.0,-1318.0,-179.0,3
572,46.0,-304.0,-59.0,-245.0,41.0,-758.0,136.0,-1233.0,-141.0,3
573,53.0,-291.0,-46.0,-600.0,180.0,-960.0,160.0,-1176.0,-112.0,3
574,58.0,-284.0,-33.0,-910.0,335.0,-1130.0,181.0,-1140.0,-46.0,3
575,56.0,-283.0,-18.0,-1152.0,498.0,-1265.0,189.0,-1120.0,23.0,3
576,57.0,-291.0,6.0,-1333.0,685.0,-1298.0,189.0,-1130.0,112.0,3
577,53.0,-305.0,30.0,-1405.0,809.0,-1250.0,173.0,-1202.0,216.0,3
578,58.0,-329.0,56.0,-1419.0,894.0,-1132.0,221.0,-1278.0,316.0,3
579,67.0,-351.0,77.0,-1376.0,941.0,-994.0,244.0,-1347.0,411.0,3
580,66.0,-370.0,102.0,-1261.0,930.0,-860.0,246.0,-1402.0,487.0,3
581,63.0,-379.0,118.0,-1081.0,844.0,-733.0,244.0,-1427.0,530.0,3
582,64.0,-384.0,118.0,-852.0,691.0,-612.0,256.0,-1444.0,547.0,3
583,69.0,-384.0,117.0,-595.0,509.0,-507.0,271.0,-1444.0,551.0,3
584,76.0,-381.0,118.0,-332.0,325.0,-416.0,281.0,-1441.0,533.0,3
585,82.0,-375.0,106.0,-79.0,170.0,-330.0,299.0,-1421.0,511.0,3
586,85.0,-362.0,101.0,156.0,59.0,-244.0,314.0,-1380.0,479.0,3
587,89.0,-345.0,91.0,369.0,4.0,-154.0,314.0,-1337.0,445.0,3
588,94.0,-329.0,72.0,537.0,12.0,-75.0,327.0,-1281.0,393.0,3
589,95.0,-310.0,65.0,655.0,91.0,-6.0,335.0,-1209.0,358.0,3
590,96.0,-288.0,55.0,742.0,196.0,31.0,324.0,-1132.0,304.0,3
591,85.0,-271.0,45.0,772.0,322.0,73.0,302.0,-1066.0,253.0,3
592,78.0,-258.0,29.0,762.0,455.0,137.0,257.0,-1027.0,214.0,3
593,64.0,-249.0,20.0,724.0,579.0,211.0,223.0,-969.0,178.0,3
594,59.0,-236.0,13.0,666.0,678.0,275.0,210.0,-933.0,160.0,3
595,54.0,-227.0,13.0,578.0,748.0,306.0,198.0,-892.0,152.0,3
596,50.0,-210.0,11.0,472.0,783.0,337.0,182.0,-843.0,131.0,3
597,51.0,-200.0,3.0,339.0,797.0,379.0,177.0,-823.0,109.0,3
598,46.0,-199.0,3.0,178.0,780.0,429.0,170.0,-804.0,103.0,3
599,38.0,-189.0,-4.0,31.0,743.0,502.0,135.0,-763.0,85.0,3
600,25.0,-180.0,-15.0,-96.0,698.0,583.0,103.0,-721.0,42.0,3
601,4.0,-158.0,-20.0,-192.0,644.0,654.0,28.0,-647.0,27.0,3
602,-4.0,-140.0,-19.0,-231.0,571.0,747.0,-14.0,-551.0,7.0,3
603,-8.0,-114.0,-33.0,-215.0,463.0,805.0,-29.0,-443.0,-27.0,3
604,-12.0,-83.0,-53.0,-166.0,386.0,845.0,-53.0,-332.0,-120.0,3
605,-12.0,-62.0,-65.0,-116.0,330.0,862.0,-66.0,-225.0,-178.0,3
606,-19.0,-46.0,-85.0,-76.0,290.0,857.0,-77.0,-198.0,-250.0,3
607,-18.0,-42.0,-101.0,-77.0,257.0,830.0,-68.0,-176.0,-306.0,3
608,-20.0,-41.0,-110.0,-104.0,214.0,776.0,-89.0,-177.0,-352.0,3
609,-23.0,-45.0,-115.0,-133.0,166.0,722.0,-100.0,-187.0,-366.0,3
610,-22.0,-52.0,-106.0,-131.0,119.0,680.0,-103.0,-190.0,-349.0,3
611,-27.0,-48.0,-107.0,-80.0,77.0,630.0,-110.0,-180.0,-345.0,3
612,-28.0,-51.0,-113.0,7.0,42.0,588.0,-119.0,-197.0,-373.0,3
613,-24.0,-62.0,-127.0,92.0,22.0,575.0,-101.0,-242.0,-422.0,3
614,-16.0,-67.0,-140.0,163.0,24.0,558.0,-90.0,-272.0,-477.0,3
615,-12.0,-73.0,-159.0,241.0,44.0,537.0,-69.0,-289.0,-543.0,3
616,-12.0,-74.0,-182.0,341.0,96.0,495.0,-71.0,-294.0,-623.0,3
617,-12.0,-81.0,-189.0,518.0,166.0,447.0,-87.0,-287.0,-670.0,3
618,-18.0,-90.0,-191.0,758.0,268.0,397.0,-117.0,-305.0,-677.0,3
619,-21.0,-105.0,-174.0,1080.0,394.0,340.0,-124.0,-372.0,-612.0,3
620,-25.0,-119.0,-157.0,1454.0,537.0,277.0,-144.0,-423.0,-518.0,3
621,-29.0,-130.0,-127.0,1830.0,682.0,214.0,-138.0,-483.0,-420.0,3
622,-15.0,-145.0,-116.0,2147.0,801.0,149.0,-89.0,-555.0,-363.0,3
623,2.0,-164.0,-109.0,2364.0,867.0,66.0,-6.0,-643.0,-335.0,3
624,24.0,-178.0,-108.0,2455.0,865.0,-37.0,95.0,-709.0,-336.0,3
625,46.0,-188.0,-118.0,2396.0,808.0,-186.0,164.0,-782.0,-377.0,3
626,42.0,-187.0,-120.0,2136.0,719.0,-392.0,165.0,-801.0,-387.0,3
627,24.0,-174.0,-97.0,1682.0,622.0,-633.0,103.0,-771.0,-322.0,3
628,-1.0,-177.0,-60.0,1130.0,534.0,-844.0,13.0,-735.0,-208.0,3
629,-17.0,-187.0,-48.0,599.0,447.0,-1040.0,-76.0,-797.0,-94.0,3
630,-49.0,-214.0,-25.0,83.0,373.0,-1163.0,-202.0,-873.0,-11.0,3
631,-82.0,-247.0,-40.0,-254.0,376.0,-1229.0,-345.0,-982.0,-42.0,3
632,-96.0,-282.0,-103.0,-654.0,451.0,-1266.0,-424.0,-1158.0,-329.0,3
633,-106.0,-338.0,-149.0,-1267.0,548.0,-1361.0,-463.0,-1434.0,-502.0,3
634,-113.0,-397.0,-163.0,-2030.0,643.0,-1499.0,-484.0,-1638.0,-552.0,3
635,-104.0,-461.0,-138.0,-2793.0,735.0,-1618.0,-468.0,-1852.0,-472.0,3
636,-74.0,-545.0,-96.0,-3413.0,823.0,-1657.0,-354.0,-2119.0,-302.0,3
637,-37.0,-640.0,-51.0,-3808.0,879.0,-1592.0,-212.0,-2426.0,-120.0,3
638,-14.0,-711.0,-20.0,-3927.0,881.0,-1397.0,-92.0,-2733.0,26.0,3
639,6.0,-798.0,9.0,-3712.0,824.0,-1094.0,0.0,-2978.0,149.0,3
640,22.0,-848.0,42.0,-3125.0,703.0,-732.0,69.0,-3123.0,238.0,3
641,27.0,-845.0,59.0,-2157.0,525.0,-380.0,86.0,-3082.0,303.0,3
642,34.0,-790.0,57.0,-922.0,331.0,-44.0,109.0,-2898.0,310.0,3
643,47.0,-711.0,35.0,354.0,115.0,296.0,144.0,-2649.0,259.0,3
644,44.0,-607.0,18.0,1637.0,-8.0,517.0,141.0,-2339.0,186.0,3
645,23.0,-498.0,5.0,2373.0,-66.0,700.0,74.0,-1986.0,128.0,3
646,6.0,-391.0,-12.0,2780.0,-75.0,870.0,2.0,-1534.0,59.0,3
647,1.0,-314.0,-24.0,2864.0,-74.0,1009.0,-12.0,-1218.0,-3.0,3
648,10.0,-227.0,-32.0,2670.0,-78.0,1101.0,17.0,-908.0,-19.0,3
649,16.0,-149.0,-32.0,2277.0,-87.0,1148.0,51.0,-648.0,-27.0,3
650,25.0,-98.0,-36.0,1777.0,-95.0,1190.0,80.0,-470.0,-37.0,3
651,30.0,-80.0,-35.0,1222.0,-104.0,1229.0,106.0,-408.0,-40.0,3
652,31.0,-81.0,-31.0,648.0,-107.0,1256.0,103.0,-407.0,-24.0,3
653,29.0,-97.0,-28.0,96.0,-87.0,1274.0,96.0,-445.0,-20.0,3
654,20.0,-130.0,-17.0,-404.0,-28.0,1307.0,55.0,-549.0,9.0,3
655,7.0,-170.0,-2.0,-839.0,64.0,1335.0,13.0,-677.0,68.0,3
656,0.0,-197.0,6.0,-1187.0,156.0,1340.0,-8.0,-805.0,136.0,3
657,7.0,-236.0,36.0,-1483.0,224.0,1302.0,20.0,-922.0,224.0,3
658,14.0,-268.0,62.0,-1619.0,242.0,1231.0,32.0,-1033.0,317.0,3
659,15.0,-291.0,84.0,-1644.0,242.0,1140.0,43.0,-1097.0,415.0,3
660,21.0,-303.0,105.0,-1561.0,243.0,1056.0,51.0,-1140.0,525.0,3
661,20.0,-312.0,124.0,-1383.0,255.0,970.0,63.0,-1161.0,588.0,3
662,23.0,-312.0,132.0,-1131.0,291.0,886.0,67.0,-1155.0,614.0,3
663,18.0,-310.0,128.0,-838.0,342.0,794.0,50.0,-1158.0,606.0,3
664,16.0,-304.0,126.0,-555.0,389.0,706.0,35.0,-1145.0,589.0,3
665,6.0,-296.0,119.0,-299.0,420.0,610.0,14.0,-1106.0,559.0,3
666,0.0,-290.0,103.0,-83.0,429.0,515.0,0.0,-1098.0,506.0,3
667,-3.0,-282.0,82.0,96.0,425.0,416.0,-20.0,-1082.0,436.0,3
668,-7.0,-275.0,76.0,243.0,426.0,327.0,-44.0,-1056.0,378.0,3
669,-11.0,-272.0,67.0,373.0,431.0,240.0,-61.0,-1036.0,341.0,3
670,-12.0,-260.0,55.0,501.0,425.0,146.0,-72.0,-993.0,292.0,3
671,-15.0,-237.0,34.0,645.0,415.0,73.0,-79.0,-926.0,242.0,3
672,-14.0,-217.0,11.0,734.0,408.0,9.0,-85.0,-853.0,168.0,3
673,-17.0,-197.0,-2.0,778.0,405.0,-60.0,-91.0,-786.0,88.0,3
674,-19.0,-177.0,-21.0,763.0,401.0,-132.0,-89.0,-694.0,-3.0,3
675,-16.0,-153.0,-41.0,688.0,385.0,-221.0,-87.0,-621.0,-76.0,3
676,-15.0,-135.0,-60.0,561.0,365.0,-320.0,-74.0,-558.0,-131.0,3
677,-14.0,-121.0,-68.0,401.0,347.0,-431.0,-77.0,-501.0,-175.0,3
678,-15.0,-108.0,-74.0,217.0,332.0,-540.0,-85.0,-446.0,-213.0,3
679,-15.0,-94.0,-78.0,27.0,326.0,-642.0,-76.0,-410.0,-222.0,3
680,-15.0,-86.0,-77.0,-149.0,322.0,-714.0,-71.0,-372.0,-225.0,3
681,-13.0,-85.0,-75.0,-304.0,333.0,-774.0,-80.0,-354.0,-229.0,3
682,-10.0,-85.0,-74.0,-440.0,352.0,-819.0,-56.0,-357.0,-203.0,3
683,-11.0,-88.0,-64.0,-546.0,368.0,-880.0,-48.0,-350.0,-161.0,3
684,-11.0,-92.0,-50.0,-605.0,384.0,-912.0,-53.0,-360.0,-125.0,3
685,-11.0,-97.0,-46.0,-591.0,387.0,-928.0,-67.0,-361.0,-84.0,3
686,-10.0,-99.0,-32.0,-510.0,394.0,-923.0,-57.0,-367.0,-42.0,3
687,-10.0,-94.0,-27.0,-365.0,410.0,-912.0,-57.0,-352.0,-4.0,3
688,-12.0,-88.0,-27.0,-156.0,433.0,-875.0,-53.0,-317.0,-6.0,3
689,-6.0,-79.0,-33.0,87.0,458.0,-829.0,-34.0,-291.0,-28.0,3
690,-5.0,-72.0,-50.0,332.0,472.0,-788.0,-14.0,-260.0,-88.0,3
691,-4.0,-67.0,-62.0,555.0,457.0,-777.0,-11.0,-241.0,-179.0,3
692,-11.0,-61.0,-90.0,758.0,404.0,-788.0,-49.0,-216.0,-281.0,3
693,-30.0,-55.0,-125.0,942.0,312.0,-816.0,-104.0,-196.0,-421.0,3
694,-38.0,-53.0,-165.0,1092.0,188.0,-834.0,-147.0,-197.0,-582.0,3
695,-59.0,-64.0,-199.0,1225.0,67.0,-860.0,-233.0,-225.0,-726.0,3
696,-82.0,-78.0,-211.0,1387.0,-19.0,-869.0,-328.0,-278.0,-777.0,3
697,-97.0,-106.0,-195.0,1622.0,-108.0,-831.0,-373.0,-354.0,-721.0,3
698,-99.0,-127.0,-174.0,2009.0,-229.0,-757.0,-381.0,-438.0,-619.0,3
699,-76.0,-148.0,-152.0,2336.0,-379.0,-658.0,-322.0,-536.0,-548.0,3
700,-50.0,-149.0,-133.0,2548.0,-494.0,-571.0,-205.0,-591.0,-464.0,3
701,-25.0,-137.0,-125.0,2590.0,-517.0,-528.0,-139.0,-591.0,-404.0,3
702,-51.0,-138.0,-145.0,2394.0,-408.0,-467.0,-272.0,-649.0,-479.0,3
703,-91.0,-151.0,-164.0,1905.0,-180.0,-282.0,-436.0,-738.0,-565.0,3
704,-115.0,-176.0,-175.0,1165.0,85.0,86.0,-492.0,-838.0,-589.0,3
705,-91.0,-193.0,-143.0,286.0,329.0,544.0,-398.0,-888.0,-495.0,3
706,-36.0,-201.0,-69.0,-594.0,574.0,943.0,-217.0,-888.0,-208.0,3
707,1.0,-208.0,12.0,-1325.0,837.0,1139.0,-46.0,-870.0,115.0,3
708,17.0,-242.0,48.0,-1849.0,1031.0,1196.0,72.0,-957.0,280.0,3
709,21.0,-296.0,26.0,-2214.0,985.0,1287.0,149.0,-1203.0,192.0,3
710,45.0,-388.0,-41.0,-2481.0,525.0,1535.0,225.0,-1545.0,-75.0,3
711,86.0,-484.0,-93.0,-2748.0,10.0,1714.0,346.0,-1891.0,-274.0,3
712,138.0,-572.0,-88.0,-2904.0,-388.0,1763.0,490.0,-2192.0,-270.0,3
713,161.0,-647.0,-51.0,-2937.0,-607.0,1712.0,583.0,-2454.0,-135.0,3
714,132.0,-714.0,-17.0,-2810.0,-729.0,1625.0,500.0,-2658.0,5.0,3
715,83.0,-758.0,7.0,-2498.0,-826.0,1514.0,338.0,-2802.0,125.0,3
716,35.0,-777.0,5.0,-1969.0,-910.0,1374.0,97.0,-2877.0,110.0,3
717,-16.0,-771.0,-8.0,-1264.0,-941.0,1158.0,-113.0,-2855.0,57.0,3
718,-46.0,-744.0,-12.0,-474.0,-893.0,880.0,-248.0,-2721.0,52.0,3
719,-58.0,-680.0,-8.0,293.0,-793.0,565.0,-292.0,-2491.0,57.0,3
720,-59.0,-601.0,-5.0,931.0,-665.0,249.0,-283.0,-2242.0,79.0,3
721,-61.0,-517.0,5.0,1381.0,-529.0,-84.0,-281.0,-1969.0,102.0,3
722,-54.0,-431.0,4.0,1607.0,-402.0,-397.0,-259.0,-1674.0,127.0,3
723,-45.0,-357.0,-2.0,1600.0,-275.0,-741.0,-230.0,-1441.0,101.0,3
724,-22.0,-302.0,0.0,1312.0,-108.0,-973.0,-152.0,-1238.0,90.0,3
725,-7.0,-256.0,0.0,927.0,55.0,-1166.0,-83.0,-1082.0,79.0,3
726,23.0,-223.0,1.0,492.0,247.0,-1300.0,19.0,-957.0,94.0,3
727,29.0,-200.0,8.0,76.0,454.0,-1405.0,69.0,-837.0,119.0,3
728,32.0,-191.0,9.0,-295.0,654.0,-1456.0,77.0,-795.0,121.0,3
729,27.0,-202.0,16.0,-644.0,819.0,-1444.0,82.0,-826.0,160.0,3
730,28.0,-219.0,40.0,-963.0,924.0,-1359.0,93.0,-885.0,225.0,3
731,22.0,-232.0,49.0,-1205.0,964.0,-1246.0,76.0,-941.0,285.0,3
732,26.0,-263.0,68.0,-1371.0,947.0,-1094.0,108.0,-1033.0,356.0,3
733,29.0,-287.0,77.0,-1452.0,876.0,-932.0,113.0,-1102.0,409.0,3
734,28.0,-308.0,98.0,-1445.0,735.0,-745.0,122.0,-1164.0,460.0,3
735,48.0,-323.0,102.0,-1350.0,539.0,-567.0,185.0,-1225.0,490.0,3
736,53.0,-332.0,110.0,-1186.0,334.0,-392.0,224.0,-1255.0,517.0,3
737,63.0,-339.0,110.0,-922.0,107.0,-271.0,248.0,-1281.0,514.0,3
738,82.0,-333.0,119.0,-692.0,-31.0,-163.0,299.0,-1265.0,534.0,3
739,97.0,-325.0,113.0,-449.0,-116.0,-75.0,346.0,-1228.0,544.0,3
740,101.0,-324.0,107.0,-188.0,-155.0,0.0,368.0,-1214.0,511.0,3
741,102.0,-303.0,93.0,88.0,-157.0,45.0,365.0,-1142.0,466.0,3
742,94.0,-297.0,59.0,372.0,-132.0,79.0,338.0,-1131.0,350.0,3
743,82.0,-281.0,39.0,605.0,-80.0,98.0,296.0,-1075.0,253.0,3
744,74.0,-270.0,24.0,804.0,-6.0,128.0,250.0,-1029.0,195.0,3
745,64.0,-256.0,11.0,967.0,91.0,159.0,209.0,-963.0,141.0,3
746,47.0,-233.0,1.0,1093.0,197.0,175.0,145.0,-888.0,98.0,3
747,37.0,-205.0,-9.0,1192.0,291.0,183.0,110.0,-788.0,50.0,3
748,24.0,-176.0,-31.0,1252.0,353.0,185.0,83.0,-692.0,-30.0,3
749,13.0,-152.0,-58.0,1226.0,371.0,184.0,48.0,-653.0,-137.0,3
750,-2.0,-139.0,-85.0,1057.0,351.0,238.0,-9.0,-630.0,-243.0,3
751,-12.0,-134.0,-95.0,709.0,307.0,354.0,-43.0,-587.0,-295.0,3
752,-18.0,-126.0,-98.0,414.0,248.0,492.0,-76.0,-532.0,-295.0,3
753,-30.0,-111.0,-95.0,197.0,192.0,578.0,-108.0,-460.0,-294.0,3
754,-34.0,-98.0,-95.0,51.0,141.0,624.0,-136.0,-407.0,-298.0,3
755,-33.0,-83.0,-94.0,-43.0,93.0,628.0,-150.0,-340.0,-296.0,3
756,-38.0,-71.0,-96.0,-88.0,60.0,604.0,-164.0,-295.0,-292.0,3
757,-41.0,-64.0,-95.0,-104.0,42.0,548.0,-164.0,-238.0,-288.0,3
758,-42.0,-49.0,-90.0,-95.0,34.0,477.0,-161.0,-198.0,-266.0,3
759,-38.0,-36.0,-88.0,-63.0,36.0,392.0,-168.0,-147.0,-260.0,3
760,-41.0,-27.0,-81.0,-14.0,43.0,314.0,-169.0,-106.0,-233.0,3
761,-42.0,-21.0,-84.0,46.0,45.0,240.0,-168.0,-101.0,-248.0,3
762,-40.0,-23.0,-85.0,96.0,47.0,175.0,-172.0,-97.0,-258.0,3
763,-38.0,-33.0,-97.0,138.0,57.0,123.0,-159.0,-144.0,-308.0,3
764,-28.0,-42.0,-115.0,175.0,89.0,101.0,-118.0,-181.0,-356.0,3
765,-15.0,-54.0,-123.0,233.0,124.0,79.0,-77.0,-211.0,-398.0,3
766,-18.0,-63.0,-148.0,334.0,177.0,77.0,-89.0,-235.0,-492.0,3
767,-27.0,-84.0,-162.0,482.0,238.0,85.0,-127.0,-296.0,-570.0,3
768,-26.0,-109.0,-169.0,697.0,298.0,93.0,-136.0,-385.0,-604.0,3
769,-25.0,-136.0,-152.0,1004.0,372.0,88.0,-137.0,-471.0,-546.0,3
770,-21.0,-166.0,-124.0,1386.0,483.0,62.0,-123.0,-554.0,-415.0,3
771,-10.0,-185.0,-102.0,1791.0,609.0,27.0,-66.0,-669.0,-303.0,3
772,4.0,-194.0,-80.0,2189.0,707.0,-4.0,14.0,-723.0,-233.0,3
773,35.0,-219.0,-86.0,2546.0,736.0,-48.0,126.0,-838.0,-245.0,3
774,56.0,-238.0,-99.0,2758.0,682.0,-152.0,233.0,-948.0,-298.0,3
775,64.0,-244.0,-115.0,2729.0,563.0,-362.0,247.0,-1015.0,-364.0,3
776,40.0,-233.0,-115.0,2434.0,419.0,-674.0,169.0,-1007.0,-372.0,3
777,-7.0,-213.0,-105.0,1903.0,226.0,-877.0,-8.0,-940.0,-339.0,3
778,-43.0,-202.0,-56.0,1115.0,63.0,-951.0,-156.0,-872.0,-178.0,3
779,-63.0,-220.0,-58.0,499.0,-78.0,-963.0,-229.0,-917.0,-117.0,3
780,-74.0,-258.0,-117.0,-139.0,-191.0,-1001.0,-283.0,-1090.0,-311.0,3
781,-89.0,-291.0,-184.0,-946.0,-280.0,-1097.0,-377.0,-1276.0,-640.0,3
782,-103.0,-350.0,-243.0,-1936.0,-307.0,-1204.0,-453.0,-1498.0,-868.0,3
783,-108.0,-413.0,-255.0,-2982.0,-237.0,-1278.0,-494.0,-1718.0,-925.0,3
784,-76.0,-506.0,-205.0,-3951.0,-90.0,-1281.0,-397.0,-1997.0,-710.0,3
785,-40.0,-616.0,-125.0,-4660.0,82.0,-1237.0,-231.0,-2403.0,-380.0,3
786,-20.0,-730.0,-23.0,-4937.0,237.0,-1126.0,-150.0,-2740.0,8.0,3
787,-15.0,-835.0,55.0,-4679.0,346.0,-929.0,-120.0,-3057.0,304.0,3
788,-11.0,-903.0,100.0,-3890.0,379.0,-683.0,-94.0,-3266.0,480.0,3
789,-10.0,-909.0,115.0,-2676.0,331.0,-464.0,-82.0,-3286.0,552.0,3
790,2.0,-861.0,118.0,-1205.0,241.0,-263.0,-10.0,-3089.0,562.0,3
791,23.0,-764.0,108.0,606.0,124.0,-146.0,50.0,-2748.0,514.0,3
792,28.0,-643.0,81.0,1937.0,66.0,-30.0,64.0,-2358.0,429.0,3
793,28.0,-516.0,54.0,2945.0,66.0,106.0,66.0,-1947.0,324.0,3
794,20.0,-389.0,30.0,3557.0,93.0,264.0,58.0,-1552.0,231.0,3
795,12.0,-284.0,5.0,3772.0,97.0,421.0,40.0,-1200.0,130.0,3
796,4.0,-194.0,-23.0,3629.0,45.0,569.0,22.0,-898.0,40.0,3
797,5.0,-125.0,-32.0,3202.0,-64.0,708.0,28.0,-651.0,-23.0,3
798,15.0,-74.0,-39.0,2595.0,-205.0,831.0,56.0,-413.0,-53.0,3
799,17.0,-54.0,-41.0,1902.0,-345.0,941.0,66.0,-315.0,-78.0,3
800,14.0,-43.0,-45.0,1183.0,-451.0,1035.0,50.0,-281.0,-95.0,3
801,13.0,-54.0,-44.0,478.0,-492.0,1112.0,31.0,-299.0,-75.0,3
802,16.0,-68.0,-36.0,-172.0,-469.0,1178.0,39.0,-352.0,-42.0,3
803,12.0,-96.0,-19.0,-741.0,-390.0,1231.0,22.0,-439.0,18.0,3
804,7.0,-132.0,6.0,-1209.0,-249.0,1251.0,0.0,-537.0,105.0,3
805,4.0,-161.0,33.0,-1620.0,-137.0,1251.0,-4.0,-643.0,209.0,3
806,11.0,-202.0,65.0,-1822.0,-53.0,1224.0,14.0,-752.0,326.0,3
807,11.0,-231.0,93.0,-1890.0,0.0,1166.0,22.0,-854.0,427.0,3
808,15.0,-254.0,105.0,-1833.0,39.0,1089.0,35.0,-947.0,502.0,3
809,15.0,-275.0,117.0,-1676.0,76.0,999.0,57.0,-1032.0,562.0,3
810,23.0,-294.0,128.0,-1440.0,123.0,895.0,67.0,-1089.0,604.0,3
811,19.0,-305.0,134.0,-1140.0,177.0,782.0,59.0,-1117.0,624.0,3
812,12.0,-302.0,131.0,-800.0,227.0,673.0,40.0,-1129.0,612.0,3
813,7.0,-298.0,126.0,-449.0,257.0,569.0,4.0,-1096.0,587.0,3
814,-3.0,-285.0,113.0,-110.0,266.0,470.0,-12.0,-1055.0,544.0,3
815,-7.0,-268.0,93.0,198.0,258.0,369.0,-39.0,-1015.0,479.0,3
816,-13.0,-253.0,81.0,451.0,237.0,269.0,-69.0,-937.0,400.0,3
817,-16.0,-229.0,58.0,638.0,214.0,169.0,-94.0,-861.0,329.0,3
818,-21.0,-204.0,42.0,786.0,186.0,98.0,-100.0,-787.0,251.0,3
819,-19.0,-186.0,20.0,851.0,176.0,27.0,-101.0,-727.0,177.0,3
820,-20.0,-173.0,-2.0,870.0,182.0,-55.0,-106.0,-676.0,92.0,3
821,-15.0,-164.0,-24.0,844.0,196.0,-144.0,-98.0,-654.0,8.0,3
822,-15.0,-161.0,-43.0,774.0,209.0,-243.0,-84.0,-644.0,-66.0,3
823,-13.0,-157.0,-59.0,663.0,219.0,-353.0,-66.0,-636.0,-131.0,3
824,-11.0,-156.0,-71.0,524.0,228.0,-471.0,-58.0,-646.0,-181.0,3
825,-7.0,-157.0,-74.0,359.0,238.0,-592.0,-48.0,-644.0,-216.0,3
826,-5.0,-153.0,-73.0,190.0,238.0,-698.0,-33.0,-638.0,-212.0,3
827,-1.0,-153.0,-75.0,42.0,235.0,-775.0,-22.0,-616.0,-189.0,3
828,0.0,-148.0,-61.0,-77.0,232.0,-837.0,-11.0,-602.0,-173.0,3
829,2.0,-144.0,-58.0,-163.0,233.0,-891.0,-8.0,-574.0,-146.0,3
830,2.0,-135.0,-51.0,-212.0,244.0,-931.0,4.0,-540.0,-116.0,3
831,4.0,-129.0,-48.0,-227.0,272.0,-941.0,1.0,-505.0,-94.0,3
832,6.0,-116.0,-36.0,-217.0,306.0,-932.0,14.0,-464.0,-56.0,3
833,10.0,-106.0,-32.0,-180.0,344.0,-906.0,23.0,-414.0,-29.0,3
834,9.0,-97.0,-28.0,-102.0,390.0,-874.0,28.0,-359.0,-11.0,3
835,8.0,-79.0,-26.0,3.0,435.0,-836.0,18.0,-306.0,0.0,3
836,13.0,-67.0,-26.0,136.0,471.0,-801.0,27.0,-249.0,-10.0,3
837,10.0,-50.0,-34.0,283.0,485.0,-779.0,32.0,-193.0,-31.0,3
838,1.0,-39.0,-49.0,422.0,473.0,-772.0,16.0,-151.0,-91.0,3
839,-11.0,-28.0,-71.0,528.0,425.0,-764.0,-27.0,-115.0,-200.0,3
840,-31.0,-22.0,-101.0,593.0,323.0,-758.0,-101.0,-108.0,-305.0,3
841,-46.0,-20.0,-136.0,609.0,165.0,-760.0,-152.0,-109.0,-460.0,3
842,-59.0,-23.0,-178.0,572.0,-29.0,-761.0,-215.0,-122.0,-619.0,3
843,-75.0,-39.0,-201.0,530.0,-196.0,-761.0,-302.0,-168.0,-755.0,3
844,-100.0,-65.0,-214.0,551.0,-312.0,-732.0,-405.0,-240.0,-770.0,3
845,-111.0,-98.0,-176.0,778.0,-383.0,-664.0,-419.0,-321.0,-629.0,3
846,-83.0,-128.0,-135.0,1196.0,-511.0,-565.0,-321.0,-425.0,-460.0,3
847,-52.0,-141.0,-108.0,1686.0,-669.0,-444.0,-210.0,-513.0,-350.0,3
848,-12.0,-141.0,-89.0,2044.0,-750.0,-322.0,-100.0,-576.0,-263.0,3
849,-10.0,-157.0,-104.0,2120.0,-671.0,-210.0,-87.0,-679.0,-288.0,3
850,-36.0,-186.0,-143.0,1808.0,-414.0,-39.0,-196.0,-843.0,-428.0,3
851,-60.0,-217.0,-178.0,1107.0,-54.0,281.0,-288.0,-986.0,-586.0,3
852,-58.0,-232.0,-172.0,156.0,317.0,695.0,-306.0,-1071.0,-609.0,3
853,-38.0,-243.0,-118.0,-840.0,666.0,1063.0,-225.0,-1061.0,-314.0,3
854,-15.0,-241.0,-21.0,-1663.0,994.0,1269.0,-96.0,-997.0,45.0,3
855,0.0,-251.0,35.0,-2242.0,1246.0,1321.0,5.0,-1041.0,240.0,3
856,21.0,-295.0,28.0,-2676.0,1312.0,1374.0,128.0,-1222.0,195.0,3
857,55.0,-392.0,-28.0,-3057.0,974.0,1576.0,271.0,-1554.0,-7.0,3
858,94.0,-515.0,-77.0,-3388.0,422.0,1755.0,396.0,-1963.0,-194.0,3
859,138.0,-624.0,-85.0,-3465.0,-87.0,1816.0,496.0,-2346.0,-243.0,3
860,154.0,-713.0,-61.0,-3340.0,-386.0,1739.0,552.0,-2662.0,-159.0,3
861,147.0,-768.0,-34.0,-3029.0,-505.0,1605.0,515.0,-2890.0,-46.0,3
862,115.0,-816.0,-9.0,-2523.0,-539.0,1444.0,378.0,-3023.0,68.0,3
863,70.0,-836.0,7.0,-1790.0,-532.0,1258.0,219.0,-3080.0,101.0,3
864,18.0,-831.0,5.0,-885.0,-493.0,1027.0,32.0,-3051.0,93.0,3
865,-29.0,-782.0,2.0,76.0,-434.0,749.0,-150.0,-2899.0,101.0,3
866,-57.0,-700.0,-1.0,956.0,-382.0,433.0,-263.0,-2643.0,91.0,3
867,-60.0,-602.0,-7.0,1633.0,-331.0,118.0,-279.0,-2338.0,72.0,3
868,-52.0,-503.0,-9.0,2069.0,-268.0,-191.0,-247.0,-1936.0,55.0,3
869,-43.0,-408.0,-11.0,2231.0,-181.0,-494.0,-218.0,-1621.0,50.0,3
870,-36.0,-340.0,-13.0,2123.0,-65.0,-837.0,-176.0,-1320.0,56.0,3
871,-18.0,-261.0,-16.0,1707.0,103.0,-1085.0,-112.0,-1073.0,44.0,3
872,-9.0,-206.0,-12.0,1191.0,263.0,-1292.0,-62.0,-880.0,62.0,3
873,3.0,-174.0,-3.0,612.0,426.0,-1425.0,-13.0,-755.0,76.0,3
874,17.0,-153.0,1.0,41.0,579.0,-1488.0,26.0,-667.0,105.0,3
875,21.0,-148.0,15.0,-457.0,729.0,-1510.0,50.0,-645.0,155.0,3
876,18.0,-166.0,24.0,-862.0,858.0,-1502.0,48.0,-687.0,182.0,3
877,9.0,-194.0,31.0,-1197.0,934.0,-1433.0,32.0,-775.0,204.0,3
878,14.0,-226.0,49.0,-1470.0,950.0,-1301.0,21.0,-876.0,245.0,3
879,14.0,-249.0,64.0,-1665.0,930.0,-1133.0,38.0,-970.0,345.0,3
880,9.0,-279.0,91.0,-1751.0,887.0,-971.0,33.0,-1075.0,448.0,3
881,14.0,-304.0,113.0,-1724.0,781.0,-824.0,60.0,-1152.0,510.0,3
882,14.0,-312.0,120.0,-1591.0,611.0,-709.0,63.0,-1165.0,559.0,3
883,20.0,-312.0,114.0,-1377.0,416.0,-590.0,89.0,-1180.0,542.0,3
884,23.0,-324.0,103.0,-1092.0,190.0,-497.0,93.0,-1218.0,484.0,3
885,42.0,-328.0,92.0,-875.0,23.0,-359.0,145.0,-1236.0,462.0,3
886,51.0,-316.0,92.0,-636.0,-109.0,-237.0,182.0,-1192.0,457.0,3
887,52.0,-303.0,80.0,-358.0,-186.0,-152.0,191.0,-1146.0,409.0,3
888,52.0,-294.0,69.0,-90.0,-205.0,-90.0,183.0,-1100.0,348.0,3
889,58.0,-278.0,55.0,160.0,-172.0,-25.0,192.0,-1044.0,307.0,3
890,54.0,-264.0,34.0,397.0,-102.0,-2.0,185.0,-1016.0,225.0,3
891,51.0,-249.0,22.0,579.0,-13.0,5.0,178.0,-940.0,177.0,3
892,48.0,-225.0,9.0,722.0,83.0,-1.0,159.0,-862.0,144.0,3
893,39.0,-209.0,-8.0,834.0,179.0,-6.0,131.0,-815.0,79.0,3
894,24.0,-188.0,-14.0,895.0,264.0,-3.0,80.0,-751.0,41.0,3
895,8.0,-161.0,-29.0,914.0,317.0,22.0,34.0,-642.0,-17.0,3
896,0.0,-134.0,-51.0,881.0,327.0,43.0,2.0,-554.0,-100.0,3
897,-6.0,-117.0,-70.0,756.0,281.0,82.0,-31.0,-505.0,-207.0,3
898,-12.0,-99.0,-95.0,454.0,218.0,166.0,-50.0,-459.0,-309.0,3
899,-10.0,-99.0,-119.0,104.0,141.0,314.0,-46.0,-463.0,-376.0,3
900,-12.0,-104.0,-119.0,-252.0,62.0,462.0,-38.0,-461.0,-389.0,3
901,-11.0,-111.0,-117.0,-539.0,1.0,560.0,-49.0,-466.0,-378.0,3
902,-12.0,-120.0,-109.0,-719.0,-37.0,603.0,-78.0,-469.0,-364.0,3
903,-13.0,-129.0,-104.0,-786.0,-55.0,620.0,-83.0,-481.0,-330.0,3
904,-16.0,-124.0,-85.0,-751.0,-56.0,607.0,-71.0,-463.0,-267.0,3
905,-18.0,-108.0,-69.0,-600.0,-44.0,558.0,-87.0,-397.0,-204.0,3
906,-18.0,-92.0,-66.0,-356.0,-20.0,483.0,-96.0,-331.0,-182.0,3
907,-20.0,-70.0,-66.0,-85.0,12.0,400.0,-92.0,-253.0,-168.0,3
908,-17.0,-59.0,-67.0,158.0,52.0,310.0,-86.0,-217.0,-169.0,3
909,-18.0,-45.0,-65.0,351.0,92.0,217.0,-98.0,-152.0,-162.0,3
910,-24.0,-41.0,-67.0,501.0,128.0,166.0,-114.0,-147.0,-182.0,3
911,-20.0,-41.0,-82.0,633.0,151.0,143.0,-101.0,-167.0,-229.0,3
912,-11.0,-52.0,-94.0,701.0,177.0,128.0,-57.0,-194.0,-282.0,3
913,-8.0,-58.0,-115.0,742.0,205.0,133.0,-40.0,-232.0,-366.0,3
914,-14.0,-77.0,-144.0,768.0,245.0,145.0,-77.0,-298.0,-480.0,3
915,-22.0,-88.0,-156.0,813.0,299.0,158.0,-116.0,-334.0,-529.0,3
916,-24.0,-112.0,-152.0,948.0,352.0,156.0,-119.0,-414.0,-521.0,3
917,-24.0,-133.0,-124.0,1187.0,412.0,140.0,-126.0,-480.0,-423.0,3
918,-26.0,-152.0,-94.0,1507.0,481.0,96.0,-125.0,-541.0,-298.0,3
919,-22.0,-166.0,-71.0,1845.0,542.0,43.0,-116.0,-613.0,-207.0,3
920,-11.0,-180.0,-72.0,2125.0,574.0,-16.0,-59.0,-698.0,-186.0,3
921,9.0,-202.0,-74.0,2279.0,550.0,-76.0,18.0,-787.0,-198.0,3
922,28.0,-224.0,-95.0,2273.0,462.0,-180.0,89.0,-898.0,-287.0,3
923,24.0,-239.0,-104.0,2049.0,302.0,-380.0,96.0,-1007.0,-343.0,3
924,10.0,-242.0,-103.0,1525.0,161.0,-602.0,26.0,-1018.0,-318.0,3
925,-22.0,-239.0,-75.0,951.0,14.0,-811.0,-110.0,-1005.0,-206.0,3
926,-72.0,-231.0,-39.0,379.0,-131.0,-949.0,-306.0,-951.0,-63.0,3
927,-110.0,-238.0,-39.0,-89.0,-235.0,-977.0,-451.0,-979.0,-60.0,3
928,-145.0,-267.0,-106.0,-549.0,-292.0,-1001.0,-590.0,-1134.0,-301.0,3
929,-183.0,-319.0,-181.0,-1210.0,-342.0,-1057.0,-725.0,-1344.0,-602.0,3
930,-218.0,-377.0,-217.0,-2072.0,-381.0,-1138.0,-871.0,-1543.0,-754.0,3
931,-211.0,-452.0,-207.0,-2959.0,-374.0,-1172.0,-899.0,-1789.0,-762.0,3
932,-155.0,-547.0,-155.0,-3704.0,-302.0,-1139.0,-727.0,-2062.0,-584.0,3
933,-113.0,-621.0,-97.0,-4140.0,-191.0,-1067.0,-507.0,-2378.0,-301.0,3
934,-69.0,-718.0,-27.0,-4157.0,-78.0,-964.0,-341.0,-2676.0,-21.0,3
935,-35.0,-812.0,25.0,-3719.0,1.0,-791.0,-196.0,-2961.0,171.0,3
936,-21.0,-876.0,54.0,-2895.0,28.0,-566.0,-134.0,-3177.0,301.0,3
937,-15.0,-872.0,69.0,-1539.0,-3.0,-389.0,-98.0,-3167.0,358.0,3
938,-1.0,-810.0,62.0,-286.0,-91.0,-231.0,-33.0,-2956.0,345.0,3
939,12.0,-714.0,51.0,890.0,-212.0,-83.0,16.0,-2633.0,306.0,3
940,28.0,-602.0,37.0,1872.0,-324.0,49.0,76.0,-2281.0,251.0,3
941,39.0,-488.0,26.0,2573.0,-393.0,169.0,118.0,-1910.0,218.0,3
942,45.0,-404.0,24.0,2971.0,-423.0,270.0,148.0,-1539.0,179.0,3
943,45.0,-306.0,8.0,3075.0,-443.0,362.0,158.0,-1216.0,139.0,3
944,40.0,-217.0,7.0,2924.0,-480.0,432.0,142.0,-922.0,112.0,3
945,33.0,-147.0,5.0,2567.0,-550.0,508.0,129.0,-672.0,85.0,3
946,34.0,-91.0,-11.0,2064.0,-645.0,594.0,133.0,-474.0,66.0,3
947,41.0,-64.0,-14.0,1474.0,-736.0,698.0,148.0,-361.0,46.0,3
948,44.0,-61.0,-14.0,851.0,-805.0,797.0,163.0,-323.0,35.0,3
949,36.0,-70.0,-15.0,241.0,-832.0,913.0,132.0,-349.0,28.0,3
950,25.0,-101.0,-8.0,-327.0,-801.0,998.0,84.0,-456.0,66.0,3
951,25.0,-128.0,6.0,-922.0,-743.0,1054.0,79.0,-579.0,114.0,3
952,24.0,-168.0,22.0,-1323.0,-692.0,1053.0,71.0,-698.0,187.0,3
953,21.0,-201.0,47.0,-1604.0,-651.0,1011.0,72.0,-802.0,269.0,3
954,20.0,-226.0,69.0,-1734.0,-623.0,942.0,61.0,-870.0,368.0,3
955,19.0,-247.0,88.0,-1710.0,-598.0,865.0,48.0,-922.0,435.0,3
956,20.0,-259.0,101.0,-1549.0,-556.0,772.0,51.0,-952.0,490.0,3
957,18.0,-266.0,113.0,-1293.0,-500.0,681.0,48.0,-966.0,530.0,3
958,11.0,-266.0,118.0,-981.0,-432.0,586.0,32.0,-973.0,559.0,3
959,4.0,-264.0,114.0,-645.0,-356.0,500.0,3.0,-978.0,569.0,3
960,-3.0,-261.0,120.0,-323.0,-276.0,409.0,-34.0,-982.0,555.0,3
961,-16.0,-258.0,113.0,-39.0,-205.0,324.0,-82.0,-966.0,544.0,3
962,-28.0,-246.0,105.0,210.0,-156.0,230.0,-136.0,-911.0,505.0,3
963,-41.0,-228.0,84.0,421.0,-126.0,179.0,-175.0,-871.0,435.0,3
964,-45.0,-203.0,65.0,608.0,-117.0,133.0,-185.0,-791.0,337.0,3
965,-45.0,-189.0,41.0,704.0,-114.0,94.0,-184.0,-717.0,247.0,3
966,-36.0,-172.0,12.0,756.0,-110.0,44.0,-168.0,-665.0,155.0,3
967,-29.0,-163.0,-8.0,773.0,-101.0,-4.0,-145.0,-640.0,61.0,3
968,-17.0,-154.0,-31.0,766.0,-78.0,-62.0,-102.0,-589.0,-23.0,3
969,-11.0,-142.0,-48.0,752.0,-44.0,-111.0,-53.0,-557.0,-101.0,3
970,0.0,-137.0,-66.0,717.0,-6.0,-167.0,-4.0,-552.0,-175.0,3
971,15.0,-130.0,-77.0,648.0,31.0,-226.0,40.0,-522.0,-221.0,3
972,21.0,-120.0,-83.0,548.0,51.0,-289.0,67.0,-502.0,-255.0,3
973,27.0,-113.0,-99.0,415.0,61.0,-349.0,86.0,-486.0,-297.0,3
974,33.0,-110.0,-102.0,249.0,67.0,-415.0,92.0,-473.0,-318.0,3
975,31.0,-105.0,-99.0,72.0,82.0,-478.0,104.0,-440.0,-317.0,3
976,35.0,-98.0,-90.0,-89.0,115.0,-550.0,116.0,-407.0,-286.0,3
977,38.0,-87.0,-79.0,-210.0,148.0,-594.0,135.0,-363.0,-242.0,3
978,40.0,-80.0,-72.0,-236.0,177.0,-627.0,140.0,-309.0,-193.0,3
979,44.0,-77.0,-68.0,-196.0,201.0,-639.0,156.0,-292.0,-198.0,3
980,44.0,-71.0,-72.0,-117.0,227.0,-654.0,165.0,-276.0,-212.0,3
981,44.0,-68.0,-76.0,-13.0,254.0,-669.0,147.0,-254.0,-226.0,3
982,37.0,-62.0,-83.0,95.0,281.0,-686.0,137.0,-245.0,-243.0,3
983,37.0,-60.0,-89.0,205.0,298.0,-708.0,135.0,-222.0,-271.0,3
984,33.0,-58.0,-107.0,315.0,302.0,-747.0,122.0,-218.0,-333.0,3
985,22.0,-57.0,-123.0,411.0,293.0,-799.0,80.0,-225.0,-402.0,3
986,-3.0,-60.0,-153.0,475.0,276.0,-859.0,10.0,-232.0,-486.0,3
987,-17.0,-66.0,-165.0,523.0,230.0,-897.0,-71.0,-257.0,-570.0,3
988,-32.0,-82.0,-183.0,587.0,152.0,-898.0,-124.0,-317.0,-642.0,3
989,-48.0,-109.0,-185.0,675.0,39.0,-832.0,-186.0,-414.0,-665.0,3
990,-60.0,-137.0,-172.0,854.0,-68.0,-753.0,-224.0,-507.0,-616.0,3
991,-59.0,-164.0,-137.0,1100.0,-187.0,-670.0,-228.0,-595.0,-464.0,3
992,-39.0,-185.0,-100.0,1401.0,-281.0,-612.0,-181.0,-687.0,-320.0,3
993,-32.0,-200.0,-82.0,1679.0,-296.0,-579.0,-164.0,-777.0,-239.0,3
994,-51.0,-227.0,-108.0,1796.0,-191.0,-542.0,-246.0,-922.0,-319.0,3
995,-74.0,-246.0,-146.0,1595.0,18.0,-419.0,-372.0,-1090.0,-495.0,3
996,-95.0,-268.0,-181.0,1040.0,251.0,-173.0,-406.0,-1180.0,-652.0,3
997,-68.0,-275.0,-178.0,251.0,432.0,151.0,-308.0,-1198.0,-640.0,3
998,-27.0,-268.0,-142.0,-607.0,555.0,424.0,-130.0,-1161.0,-485.0,3
999,0.0,-258.0,-91.0,-1435.0,637.0,577.0,-24.0,-1121.0,-283.0,3
1000,21.0,-269.0,-53.0,-2224.0,663.0,683.0,72.0,-1155.0,-131.0,3
1001,16.0,-337.0,-59.0,-2943.0,580.0,891.0,84.0,-1346.0,-123.0,3
1002,-2.0,-450.0,-97.0,-3499.0,269.0,1334.0,33.0,-1698.0,-265.0,3
1003,-8.0,-578.0,-112.0,-3872.0,-68.0,1689.0,-17.0,-2123.0,-342.0,3
1004,-10.0,-663.0,-103.0,-3905.0,-357.0,1876.0,-48.0,-2511.0,-323.0,3
1005,-17.0,-761.0,-77.0,-3681.0,-553.0,1895.0,-102.0,-2825.0,-186.0,3
1006,-33.0,-834.0,-43.0,-3164.0,-651.0,1788.0,-197.0,-3087.0,-38.0,3
1007,-55.0,-877.0,-5.0,-2333.0,-660.0,1620.0,-285.0,-3199.0,87.0,3
1008,-76.0,-877.0,34.0,-1261.0,-610.0,1412.0,-366.0,-3186.0,211.0,3
1009,-84.0,-828.0,62.0,-77.0,-570.0,1185.0,-387.0,-3025.0,330.0,3
1010,-77.0,-739.0,72.0,1051.0,-565.0,957.0,-350.0,-2736.0,381.0,3
1011,-53.0,-639.0,64.0,1978.0,-593.0,732.0,-261.0,-2408.0,358.0,3
1012,-35.0,-523.0,44.0,2619.0,-605.0,484.0,-196.0,-2057.0,286.0,3
1013,-15.0,-444.0,26.0,2920.0,-567.0,238.0,-113.0,-1707.0,212.0,3
1014,12.0,-351.0,9.0,2879.0,-472.0,-3.0,3.0,-1419.0,131.0,3
1015,47.0,-281.0,-9.0,2535.0,-306.0,-294.0,123.0,-1179.0,71.0,3
1016,71.0,-231.0,-21.0,1856.0,-139.0,-532.0,224.0,-996.0,24.0,3
1017,90.0,-197.0,-30.0,1207.0,42.0,-732.0,298.0,-868.0,-11.0,3
1018,105.0,-186.0,-27.0,575.0,242.0,-887.0,349.0,-807.0,-8.0,3
1019,106.0,-188.0,-23.0,17.0,450.0,-1023.0,360.0,-798.0,-5.0,3
1020,99.0,-201.0,-13.0,-449.0,640.0,-1136.0,339.0,-829.0,30.0,3
1021,89.0,-219.0,-3.0,-822.0,785.0,-1208.0,330.0,-882.0,78.0,3
1022,87.0,-230.0,3.0,-1111.0,855.0,-1229.0,327.0,-935.0,115.0,3
1023,90.0,-253.0,13.0,-1317.0,839.0,-1197.0,338.0,-986.0,143.0,3
1024,88.0,-261.0,21.0,-1452.0,750.0,-1140.0,337.0,-1046.0,172.0,3
1025,82.0,-270.0,36.0,-1513.0,638.0,-1080.0,308.0,-1047.0,223.0,3
1026,70.0,-273.0,54.0,-1473.0,520.0,-1015.0,269.0,-1038.0,297.0,3
1027,66.0,-272.0,64.0,-1316.0,400.0,-930.0,259.0,-1044.0,341.0,3
1028,58.0,-271.0,73.0,-1092.0,252.0,-853.0,226.0,-1031.0,358.0,3
1029,53.0,-269.0,75.0,-776.0,131.0,-788.0,197.0,-1008.0,373.0,3
1030,50.0,-260.0,73.0,-504.0,24.0,-718.0,193.0,-973.0,373.0,3
1031,50.0,-257.0,65.0,-254.0,-53.0,-659.0,182.0,-968.0,346.0,3
1032,38.0,-250.0,63.0,-42.0,-98.0,-612.0,145.0,-949.0,326.0,3
1033,29.0,-244.0,50.0,152.0,-115.0,-547.0,96.0,-909.0,277.0,3
1034,13.0,-234.0,39.0,326.0,-117.0,-471.0,28.0,-889.0,238.0,3
1035,1.0,-223.0,25.0,464.0,-102.0,-398.0,-10.0,-864.0,190.0,3
1036,-11.0,-218.0,15.0,548.0,-81.0,-336.0,-60.0,-839.0,152.0,3
1037,-23.0,-203.0,8.0,597.0,-56.0,-295.0,-116.0,-799.0,117.0,3
1038,-47.0,-193.0,1.0,615.0,-31.0,-278.0,-189.0,-755.0,90.0,3
1039,-58.0,-186.0,-7.0,597.0,-8.0,-255.0,-241.0,-736.0,65.0,3
1040,-74.0,-181.0,-9.0,545.0,11.0,-256.0,-303.0,-706.0,46.0,3
1041,-91.0,-170.0,-10.0,474.0,20.0,-227.0,-369.0,-672.0,45.0,3
1042,-108.0,-161.0,-12.0,397.0,6.0,-172.0,-419.0,-639.0,46.0,3
1043,-112.0,-156.0,-15.0,343.0,-34.0,-96.0,-438.0,-622.0,38.0,3
1044,-114.0,-146.0,-16.0,302.0,-104.0,-20.0,-449.0,-568.0,29.0,3
1045,-112.0,-130.0,-21.0,298.0,-192.0,55.0,-441.0,-505.0,-2.0,3
1046,-106.0,-112.0,-36.0,333.0,-284.0,134.0,-418.0,-440.0,-38.0,3
1047,-98.0,-101.0,-44.0,380.0,-373.0,211.0,-385.0,-401.0,-109.0,3
1048,-83.0,-90.0,-59.0,423.0,-453.0,267.0,-338.0,-360.0,-145.0,3
1049,-80.0,-81.0,-68.0,475.0,-514.0,296.0,-305.0,-312.0,-196.0,3
1050,-75.0,-70.0,-82.0,542.0,-556.0,296.0,-291.0,-276.0,-257.0,3
1051,-73.0,-67.0,-98.0,613.0,-574.0,286.0,-290.0,-234.0,-309.0,3
1052,-73.0,-55.0,-115.0,684.0,-576.0,266.0,-292.0,-211.0,-361.0,3
1053,-78.0,-42.0,-124.0,756.0,-567.0,244.0,-311.0,-169.0,-409.0,3
1054,-81.0,-25.0,-130.0,828.0,-558.0,225.0,-331.0,-116.0,-445.0,3
1055,-83.0,-10.0,-144.0,900.0,-563.0,204.0,-340.0,-48.0,-481.0,3
1056,-91.0,8.0,-156.0,916.0,-588.0,187.0,-358.0,4.0,-530.0,3
1057,-98.0,16.0,-162.0,863.0,-634.0,187.0,-373.0,36.0,-565.0,3
1058,-97.0,18.0,-165.0,767.0,-697.0,207.0,-376.0,36.0,-578.0,3
1059,-89.0,4.0,-171.0,657.0,-765.0,245.0,-358.0,-8.0,-596.0,3
1060,-75.0,-15.0,-169.0,568.0,-826.0,283.0,-296.0,-73.0,-610.0,3
1061,-61.0,-39.0,-170.0,519.0,-855.0,315.0,-251.0,-172.0,-609.0,3
1062,-53.0,-63.0,-175.0,517.0,-849.0,337.0,-229.0,-253.0,-629.0,3
1063,-54.0,-79.0,-188.0,562.0,-814.0,346.0,-230.0,-312.0,-656.0,3
1064,-61.0,-94.0,-187.0,637.0,-776.0,345.0,-257.0,-359.0,-681.0,3
1065,-75.0,-108.0,-194.0,718.0,-767.0,341.0,-299.0,-419.0,-686.0,3
1066,-90.0,-128.0,-175.0,782.0,-799.0,322.0,-363.0,-477.0,-639.0,3
1067,-105.0,-140.0,-150.0,822.0,-873.0,280.0,-415.0,-548.0,-503.0,3
1068,-102.0,-179.0,-119.0,880.0,-993.0,225.0,-405.0,-695.0,-384.0,3
1069,-90.0,-211.0,-115.0,849.0,-1118.0,124.0,-359.0,-862.0,-364.0,3
1070,-79.0,-248.0,-130.0,602.0,-1244.0,-18.0,-328.0,-1050.0,-429.0,3
1071,-68.0,-281.0,-154.0,18.0,-1334.0,-179.0,-290.0,-1221.0,-509.0,3
1072,-60.0,-323.0,-165.0,-855.0,-1340.0,-360.0,-282.0,-1378.0,-553.0,3
1073,-72.0,-356.0,-191.0,-1845.0,-1246.0,-540.0,-315.0,-1502.0,-627.0,3
1074,-66.0,-413.0,-227.0,-2896.0,-1123.0,-664.0,-332.0,-1691.0,-832.0,3
1075,-58.0,-487.0,-239.0,-3990.0,-1036.0,-778.0,-288.0,-1989.0,-855.0,3
1076,-62.0,-566.0,-232.0,-4971.0,-939.0,-886.0,-320.0,-2338.0,-787.0,3
1077,-50.0,-701.0,-173.0,-5693.0,-764.0,-907.0,-260.0,-2771.0,-551.0,3
1078,3.0,-854.0,-100.0,-5967.0,-547.0,-839.0,-37.0,-3255.0,-255.0,3
1079,80.0,-994.0,-21.0,-5645.0,-361.0,-730.0,238.0,-3658.0,25.0,3
1080,149.0,-1085.0,29.0,-4669.0,-238.0,-643.0,489.0,-3910.0,204.0,3
1081,194.0,-1108.0,33.0,-3139.0,-132.0,-637.0,672.0,-4002.0,229.0,3
1082,175.0,-1032.0,43.0,-975.0,-99.0,-699.0,637.0,-3780.0,243.0,3
1083,136.0,-891.0,17.0,790.0,-187.0,-745.0,506.0,-3327.0,171.0,3
1084,117.0,-728.0,-6.0,2267.0,-351.0,-721.0,427.0,-2807.0,84.0,3
1085,108.0,-607.0,-27.0,3305.0,-517.0,-646.0,393.0,-2292.0,2.0,3
1086,104.0,-456.0,-42.0,3844.0,-630.0,-533.0,363.0,-1814.0,-52.0,3
1087,78.0,-322.0,-52.0,3926.0,-675.0,-403.0,296.0,-1407.0,-55.0,3
1088,53.0,-234.0,-24.0,3676.0,-669.0,-290.0,206.0,-1039.0,4.0,3
1089,23.0,-148.0,6.0,3223.0,-632.0,-211.0,68.0,-654.0,115.0,3
1090,-2.0,-90.0,32.0,2700.0,-598.0,-134.0,-15.0,-431.0,207.0,3
1091,-27.0,-58.0,46.0,2203.0,-606.0,-34.0,-91.0,-307.0,258.0,3
1092,-46.0,-59.0,49.0,1747.0,-676.0,104.0,-151.0,-287.0,262.0,3
1093,-49.0,-74.0,42.0,1325.0,-800.0,265.0,-185.0,-334.0,245.0,3
1094,-56.0,-86.0,39.0,927.0,-969.0,461.0,-204.0,-415.0,235.0,3
1095,-45.0,-116.0,39.0,477.0,-1073.0,589.0,-184.0,-496.0,230.0,3
1096,-36.0,-133.0,36.0,122.0,-1127.0,672.0,-156.0,-572.0,252.0,3
1097,-25.0,-147.0,54.0,-205.0,-1130.0,706.0,-117.0,-623.0,292.0,3
1098,-13.0,-169.0,71.0,-467.0,-1084.0,711.0,-99.0,-657.0,347.0,3
1099,-12.0,-179.0,86.0,-645.0,-993.0,684.0,-93.0,-686.0,415.0,3
1100,-16.0,-183.0,100.0,-741.0,-872.0,639.0,-107.0,-698.0,483.0,3
1101,-25.0,-186.0,112.0,-755.0,-735.0,592.0,-124.0,-690.0,528.0,3
1102,-30.0,-188.0,111.0,-698.0,-604.0,548.0,-137.0,-696.0,550.0,3
1103,-36.0,-190.0,117.0,-584.0,-490.0,488.0,-162.0,-701.0,551.0,3
1104,-41.0,-181.0,112.0,-428.0,-410.0,417.0,-188.0,-670.0,531.0,3
1105,-48.0,-170.0,106.0,-234.0,-362.0,347.0,-209.0,-620.0,507.0,3
1106,-55.0,-151.0,97.0,-23.0,-346.0,288.0,-231.0,-549.0,478.0,3
1107,-59.0,-129.0,87.0,186.0,-360.0,219.0,-233.0,-477.0,438.0,3
1108,-60.0,-110.0,71.0,408.0,-402.0,164.0,-240.0,-408.0,366.0,3
1109,-55.0,-99.0,39.0,553.0,-444.0,104.0,-232.0,-368.0,278.0,3
1110,-47.0,-94.0,17.0,637.0,-479.0,32.0,-189.0,-360.0,169.0,3
1111,-32.0,-92.0,-17.0,645.0,-493.0,-64.0,-156.0,-363.0,59.0,3
1112,-24.0,-91.0,-36.0,588.0,-480.0,-169.0,-120.0,-373.0,-44.0,3
1113,-14.0,-96.0,-58.0,492.0,-445.0,-272.0,-84.0,-401.0,-133.0,3
1114,-7.0,-107.0,-85.0,362.0,-393.0,-379.0,-53.0,-431.0,-216.0,3
1115,1.0,-112.0,-92.0,218.0,-322.0,-498.0,-29.0,-456.0,-271.0,3
1116,7.0,-119.0,-99.0,75.0,-243.0,-606.0,-7.0,-491.0,-305.0,3
1117,16.0,-125.0,-98.0,-56.0,-177.0,-718.0,27.0,-517.0,-310.0,3
1118,20.0,-132.0,-93.0,-172.0,-121.0,-829.0,58.0,-527.0,-291.0,3
1119,26.0,-141.0,-90.0,-260.0,-77.0,-936.0,83.0,-547.0,-266.0,3
1120,33.0,-138.0,-73.0,-308.0,-47.0,-1035.0,95.0,-546.0,-220.0,3
1121,37.0,-140.0,-67.0,-292.0,-33.0,-1081.0,122.0,-538.0,-185.0,3
1122,40.0,-138.0,-65.0,-229.0,-27.0,-1087.0,141.0,-533.0,-159.0,3
1123,49.0,-134.0,-55.0,-139.0,-16.0,-1086.0,174.0,-514.0,-136.0,3
1124,53.0,-128.0,-51.0,-14.0,4.0,-1086.0,191.0,-486.0,-108.0,3
1125,55.0,-123.0,-43.0,149.0,24.0,-1084.0,203.0,-457.0,-85.0,3
1126,58.0,-110.0,-46.0,335.0,35.0,-1081.0,213.0,-422.0,-74.0,3
1127,58.0,-94.0,-45.0,525.0,46.0,-1087.0,210.0,-361.0,-76.0,3
1128,51.0,-76.0,-54.0,703.0,59.0,-1085.0,194.0,-310.0,-112.0,3
1129,30.0,-66.0,-72.0,833.0,73.0,-1075.0,138.0,-266.0,-196.0,3
1130,18.0,-58.0,-91.0,892.0,62.0,-1040.0,56.0,-237.0,-277.0,3
1131,-5.0,-52.0,-106.0,860.0,-3.0,-1001.0,2.0,-230.0,-356.0,3
1132,-12.0,-41.0,-128.0,729.0,-129.0,-956.0,-44.0,-212.0,-432.0,3
1133,-38.0,-43.0,-144.0,546.0,-286.0,-907.0,-142.0,-209.0,-484.0,3
1134,-63.0,-60.0,-143.0,392.0,-444.0,-829.0,-252.0,-237.0,-491.0,3
1135,-73.0,-97.0,-111.0,395.0,-515.0,-738.0,-290.0,-324.0,-384.0,3
1136,-60.0,-143.0,-57.0,677.0,-553.0,-642.0,-263.0,-461.0,-191.0,3
1137,-44.0,-188.0,-3.0,1196.0,-560.0,-568.0,-210.0,-618.0,35.0,3
1138,-56.0,-248.0,3.0,1785.0,-506.0,-473.0,-241.0,-872.0,142.0,3
1139,-94.0,-302.0,-33.0,2101.0,-364.0,-291.0,-432.0,-1253.0,-8.0,3
1140,-140.0,-371.0,-126.0,1862.0,-190.0,70.0,-582.0,-1593.0,-380.0,3
1141,-144.0,-390.0,-227.0,1031.0,-108.0,525.0,-600.0,-1693.0,-800.0,3
1142,-128.0,-370.0,-244.0,-106.0,-149.0,907.0,-528.0,-1603.0,-915.0,3
1143,-101.0,-324.0,-180.0,-1142.0,-212.0,1137.0,-450.0,-1391.0,-619.0,3
1144,-74.0,-278.0,-92.0,-1913.0,-193.0,1291.0,-304.0,-1158.0,-278.0,3
1145,-65.0,-280.0,-52.0,-2492.0,-186.0,1472.0,-205.0,-1168.0,-125.0,3
1146,-55.0,-358.0,-86.0,-2991.0,-421.0,1801.0,-164.0,-1421.0,-237.0,3
1147,-37.0,-494.0,-120.0,-3420.0,-958.0,2265.0,-123.0,-1863.0,-371.0,3
1148,-19.0,-606.0,-131.0,-3682.0,-1356.0,2500.0,-66.0,-2368.0,-420.0,3
1149,4.0,-745.0,-128.0,-3565.0,-1581.0,2515.0,-17.0,-2807.0,-404.0,3
1150,13.0,-839.0,-118.0,-3159.0,-1623.0,2363.0,-10.0,-3121.0,-367.0,3
1151,5.0,-895.0,-98.0,-2522.0,-1538.0,2058.0,-48.0,-3290.0,-294.0,3
1152,-39.0,-894.0,-61.0,-1651.0,-1395.0,1653.0,-216.0,-3266.0,-174.0,3
1153,-92.0,-840.0,-20.0,-542.0,-1273.0,1246.0,-379.0,-3098.0,-10.0,3
1154,-104.0,-757.0,12.0,660.0,-1254.0,892.0,-437.0,-2815.0,121.0,3
1155,-117.0,-651.0,30.0,1709.0,-1351.0,568.0,-463.0,-2494.0,207.0,3
1156,-105.0,-545.0,23.0,2474.0,-1504.0,274.0,-446.0,-2161.0,199.0,3
1157,-85.0,-470.0,7.0,2886.0,-1626.0,-28.0,-379.0,-1828.0,113.0,3
1158,-66.0,-374.0,-25.0,2926.0,-1682.0,-332.0,-276.0,-1454.0,-7.0,3
1159,-34.0,-287.0,-43.0,2607.0,-1671.0,-618.0,-169.0,-1184.0,-78.0,3
1160,-6.0,-218.0,-52.0,2024.0,-1596.0,-918.0,-63.0,-934.0,-110.0,3
1161,28.0,-163.0,-52.0,1189.0,-1421.0,-1110.0,60.0,-746.0,-106.0,3
1162,52.0,-132.0,-44.0,515.0,-1221.0,-1234.0,158.0,-611.0,-76.0,3
1163,64.0,-126.0,-35.0,-64.0,-999.0,-1306.0,198.0,-546.0,-36.0,3
1164,57.0,-131.0,-19.0,-520.0,-771.0,-1317.0,204.0,-550.0,6.0,3
1165,56.0,-151.0,-7.0,-862.0,-567.0,-1293.0,199.0,-624.0,55.0,3
1166,59.0,-167.0,8.0,-1105.0,-421.0,-1255.0,208.0,-683.0,115.0,3
1167,59.0,-192.0,22.0,-1244.0,-339.0,-1235.0,217.0,-750.0,171.0,3
1168,53.0,-210.0,24.0,-1314.0,-312.0,-1213.0,191.0,-824.0,191.0,3
1169,46.0,-225.0,26.0,-1355.0,-332.0,-1164.0,178.0,-881.0,184.0,3
1170,49.0,-243.0,26.0,-1383.0,-384.0,-1084.0,171.0,-931.0,195.0,3
1171,37.0,-252.0,31.0,-1396.0,-435.0,-1001.0,129.0,-966.0,214.0,3
1172,45.0,-257.0,36.0,-1369.0,-487.0,-892.0,165.0,-979.0,231.0,3
1173,40.0,-256.0,44.0,-1294.0,-559.0,-770.0,146.0,-975.0,250.0,3
1174,33.0,-251.0,48.0,-1144.0,-664.0,-662.0,124.0,-959.0,268.0,3
1175,35.0,-244.0,51.0,-986.0,-761.0,-569.0,134.0,-930.0,267.0,3
1176,33.0,-238.0,40.0,-824.0,-868.0,-484.0,133.0,-911.0,258.0,3
1177,30.0,-232.0,46.0,-673.0,-976.0,-398.0,120.0,-877.0,255.0,3
1178,39.0,-226.0,40.0,-535.0,-1071.0,-291.0,137.0,-856.0,259.0,3
1179,38.0,-223.0,41.0,-399.0,-1147.0,-195.0,142.0,-849.0,246.0,3
1180,41.0,-226.0,34.0,-257.0,-1193.0,-103.0,141.0,-848.0,231.0,3
1181,40.0,-234.0,27.0,-100.0,-1207.0,-20.0,145.0,-887.0,208.0,3
1182,41.0,-253.0,26.0,73.0,-1186.0,37.0,135.0,-934.0,188.0,3
1183,31.0,-263.0,15.0,255.0,-1137.0,50.0,99.0,-995.0,180.0,3
1184,14.0,-267.0,9.0,425.0,-1083.0,58.0,35.0,-1024.0,144.0,3
1185,-3.0,-263.0,-1.0,559.0,-1037.0,75.0,-29.0,-1028.0,83.0,3
1186,-16.0,-260.0,-15.0,626.0,-1008.0,118.0,-88.0,-1008.0,16.0,3
1187,-27.0,-239.0,-33.0,602.0,-1003.0,151.0,-126.0,-952.0,-40.0,3
1188,-37.0,-227.0,-40.0,516.0,-1014.0,192.0,-156.0,-892.0,-78.0,3
1189,-37.0,-203.0,-48.0,403.0,-1022.0,222.0,-173.0,-825.0,-98.0,3
1190,-45.0,-188.0,-45.0,294.0,-1018.0,233.0,-181.0,-751.0,-93.0,3
1191,-39.0,-169.0,-48.0,210.0,-995.0,230.0,-186.0,-687.0,-87.0,3
1192,-40.0,-154.0,-44.0,156.0,-959.0,241.0,-185.0,-631.0,-90.0,3
1193,-43.0,-143.0,-43.0,128.0,-915.0,258.0,-174.0,-561.0,-91.0,3
1194,-41.0,-127.0,-46.0,128.0,-868.0,285.0,-169.0,-500.0,-93.0,3
1195,-37.0,-116.0,-55.0,148.0,-827.0,295.0,-165.0,-445.0,-116.0,3
1196,-38.0,-110.0,-61.0,171.0,-788.0,305.0,-174.0,-424.0,-150.0,3
1197,-39.0,-99.0,-67.0,183.0,-752.0,304.0,-161.0,-400.0,-170.0,3
1198,-34.0,-97.0,-71.0,183.0,-728.0,293.0,-154.0,-386.0,-199.0,3
1199,-33.0,-96.0,-82.0,168.0,-717.0,275.0,-151.0,-380.0,-234.0,3
1200,-31.0,-97.0,-87.0,134.0,-710.0,279.0,-135.0,-388.0,-243.0,3
1201,-25.0,-96.0,-86.0,98.0,-717.0,289.0,-114.0,-388.0,-254.0,3
1202,-24.0,-99.0,-84.0,85.0,-733.0,308.0,-103.0,-389.0,-254.0,3
1203,-17.0,-95.0,-85.0,106.0,-765.0,326.0,-72.0,-369.0,-247.0,3
1204,-8.0,-93.0,-87.0,160.0,-806.0,344.0,-39.0,-354.0,-264.0,3
1205,-8.0,-83.0,-96.0,233.0,-858.0,356.0,-22.0,-328.0,-299.0,3
1206,-12.0,-81.0,-116.0,304.0,-915.0,371.0,-59.0,-322.0,-365.0,3
1207,-26.0,-83.0,-137.0,352.0,-977.0,364.0,-103.0,-321.0,-460.0,3
1208,-31.0,-95.0,-158.0,388.0,-1034.0,352.0,-122.0,-355.0,-537.0,3
1209,-47.0,-107.0,-157.0,462.0,-1058.0,332.0,-184.0,-385.0,-545.0,3
1210,-67.0,-123.0,-134.0,625.0,-1044.0,323.0,-257.0,-434.0,-475.0,3
1211,-74.0,-135.0,-119.0,885.0,-1014.0,298.0,-298.0,-492.0,-385.0,3
1212,-74.0,-146.0,-108.0,1178.0,-987.0,265.0,-317.0,-534.0,-334.0,3
1213,-73.0,-150.0,-112.0,1427.0,-948.0,206.0,-298.0,-582.0,-357.0,3
1214,-63.0,-149.0,-123.0,1544.0,-933.0,159.0,-256.0,-623.0,-412.0,3
1215,-49.0,-150.0,-137.0,1417.0,-954.0,100.0,-189.0,-645.0,-459.0,3
1216,-28.0,-155.0,-137.0,1093.0,-1024.0,23.0,-106.0,-683.0,-475.0,3
1217,-15.0,-168.0,-122.0,631.0,-1123.0,-84.0,-62.0,-730.0,-418.0,3
1218,-20.0,-186.0,-91.0,114.0,-1227.0,-198.0,-78.0,-793.0,-304.0,3
1219,-31.0,-203.0,-61.0,-370.0,-1316.0,-295.0,-130.0,-854.0,-135.0,3
1220,-47.0,-243.0,-21.0,-742.0,-1362.0,-369.0,-224.0,-968.0,8.0,3
1221,-76.0,-296.0,-18.0,-988.0,-1326.0,-434.0,-345.0,-1163.0,43.0,3
1222,-96.0,-356.0,-31.0,-1193.0,-1182.0,-499.0,-438.0,-1403.0,-23.0,3
1223,-136.0,-416.0,-49.0,-1447.0,-966.0,-593.0,-578.0,-1627.0,-90.0,3
1224,-159.0,-481.0,-50.0,-1774.0,-724.0,-667.0,-684.0,-1863.0,-92.0,3
1225,-156.0,-552.0,-20.0,-2122.0,-502.0,-694.0,-684.0,-2114.0,-12.0,3
1226,-123.0,-627.0,24.0,-2390.0,-289.0,-659.0,-575.0,-2343.0,187.0,3
1227,-75.0,-695.0,60.0,-2432.0,-194.0,-597.0,-333.0,-2599.0,314.0,3
1228,-37.0,-724.0,71.0,-2188.0,-206.0,-520.0,-136.0,-2725.0,360.0,3
1229,10.0,-746.0,68.0,-1722.0,-314.0,-430.0,51.0,-2772.0,334.0,3
1230,54.0,-732.0,50.0,-1092.0,-481.0,-351.0,198.0,-2704.0,269.0,3
1231,73.0,-693.0,20.0,-371.0,-654.0,-295.0,260.0,-2561.0,163.0,3
1232,67.0,-641.0,-10.0,332.0,-787.0,-230.0,242.0,-2387.0,50.0,3
1233,56.0,-581.0,-39.0,942.0,-900.0,-154.0,198.0,-2203.0,-56.0,3
1234,48.0,-524.0,-61.0,1412.0,-1014.0,-56.0,165.0,-2021.0,-151.0,3
1235,43.0,-461.0,-72.0,1717.0,-1131.0,61.0,148.0,-1820.0,-202.0,3
1236,38.0,-400.0,-74.0,1858.0,-1242.0,194.0,131.0,-1611.0,-207.0,3
1237,30.0,-347.0,-66.0,1865.0,-1323.0,324.0,102.0,-1391.0,-176.0,3
1238,22.0,-290.0,-57.0,1766.0,-1357.0,458.0,63.0,-1180.0,-139.0,3
1239,13.0,-240.0,-47.0,1582.0,-1340.0,586.0,27.0,-992.0,-91.0,3
1240,5.0,-197.0,-32.0,1266.0,-1293.0,670.0,-1.0,-834.0,-18.0,3
1241,-4.0,-167.0,-15.0,942.0,-1226.0,740.0,-41.0,-700.0,34.0,3
1242,-12.0,-152.0,5.0,596.0,-1156.0,801.0,-74.0,-652.0,104.0,3
1243,-12.0,-153.0,21.0,253.0,-1099.0,852.0,-81.0,-646.0,177.0,3
1244,-13.0,-162.0,45.0,-67.0,-1056.0,889.0,-71.0,-661.0,253.0,3
1245,-11.0,-177.0,63.0,-350.0,-1023.0,898.0,-67.0,-706.0,320.0,3
1246,-10.0,-189.0,73.0,-582.0,-990.0,882.0,-56.0,-745.0,388.0,3
1247,-7.0,-199.0,90.0,-747.0,-952.0,841.0,-53.0,-791.0,441.0,3
1248,-7.0,-214.0,99.0,-838.0,-899.0,780.0,-50.0,-826.0,473.0,3
1249,-6.0,-224.0,101.0,-866.0,-829.0,698.0,-52.0,-852.0,486.0,3
1250,-10.0,-230.0,102.0,-844.0,-750.0,605.0,-58.0,-868.0,493.0,3
1251,-15.0,-229.0,105.0,-784.0,-667.0,505.0,-73.0,-870.0,497.0,3
1252,-20.0,-229.0,104.0,-695.0,-588.0,389.0,-98.0,-861.0,497.0,3
1253,-21.0,-229.0,104.0,-556.0,-509.0,293.0,-105.0,-860.0,495.0,3
1254,-23.0,-227.0,102.0,-432.0,-459.0,190.0,-114.0,-853.0,489.0,3
1255,-19.0,-223.0,100.0,-310.0,-427.0,83.0,-104.0,-846.0,483.0,3
1256,-21.0,-220.0,91.0,-199.0,-401.0,-22.0,-111.0,-832.0,457.0,3
1257,-23.0,-212.0,82.0,-96.0,-380.0,-131.0,-112.0,-811.0,423.0,3
1258,-23.0,-207.0,72.0,3.0,-360.0,-229.0,-112.0,-788.0,379.0,3
1259,-21.0,-201.0,62.0,97.0,-339.0,-314.0,-107.0,-766.0,328.0,3
1260,-24.0,-193.0,44.0,181.0,-324.0,-386.0,-105.0,-733.0,268.0,3
1261,-21.0,-180.0,32.0,260.0,-319.0,-454.0,-96.0,-692.0,210.0,3
1262,-14.0,-175.0,10.0,338.0,-320.0,-496.0,-91.0,-678.0,147.0,3
1263,-15.0,-168.0,-10.0,398.0,-317.0,-543.0,-86.0,-666.0,74.0,3
1264,-15.0,-164.0,-24.0,429.0,-312.0,-578.0,-83.0,-655.0,5.0,3
1265,-12.0,-167.0,-42.0,440.0,-301.0,-609.0,-69.0,-653.0,-58.0,3
1266,-10.0,-164.0,-50.0,425.0,-292.0,-654.0,-57.0,-650.0,-111.0,3
1267,-5.0,-159.0,-61.0,369.0,-287.0,-715.0,-41.0,-644.0,-158.0,3
1268,-4.0,-152.0,-70.0,303.0,-285.0,-771.0,-24.0,-615.0,-190.0,3
1269,2.0,-144.0,-68.0,233.0,-282.0,-813.0,-7.0,-574.0,-186.0,3
1270,8.0,-134.0,-68.0,181.0,-268.0,-848.0,18.0,-539.0,-185.0,3
1271,14.0,-123.0,-67.0,151.0,-241.0,-876.0,27.0,-483.0,-181.0,3
1272,17.0,-110.0,-72.0,147.0,-198.0,-887.0,45.0,-431.0,-202.0,3
1273,18.0,-98.0,-85.0,161.0,-156.0,-890.0,57.0,-394.0,-248.0,3
1274,10.0,-87.0,-96.0,185.0,-127.0,-888.0,36.0,-346.0,-320.0,3
1275,3.0,-81.0,-123.0,210.0,-123.0,-881.0,1.0,-334.0,-401.0,3
1276,-12.0,-76.0,-140.0,224.0,-162.0,-880.0,-56.0,-313.0,-469.0,3
1277,-26.0,-77.0,-161.0,241.0,-250.0,-885.0,-103.0,-296.0,-544.0,3
1278,-38.0,-75.0,-171.0,271.0,-379.0,-871.0,-133.0,-301.0,-608.0,3
1279,-46.0,-93.0,-182.0,329.0,-532.0,-826.0,-174.0,-342.0,-638.0,3
1280,-50.0,-115.0,-175.0,474.0,-605.0,-779.0,-207.0,-412.0,-613.0,3
1281,-55.0,-135.0,-154.0,674.0,-616.0,-724.0,-236.0,-479.0,-545.0,3
1282,-55.0,-151.0,-135.0,904.0,-576.0,-616.0,-234.0,-594.0,-439.0,3
1283,-45.0,-165.0,-113.0,1076.0,-510.0,-494.0,-203.0,-674.0,-360.0,3
1284,-45.0,-185.0,-98.0,1134.0,-416.0,-402.0,-225.0,-739.0,-296.0,3
1285,-70.0,-192.0,-96.0,1055.0,-323.0,-334.0,-282.0,-788.0,-294.0,3
1286,-92.0,-197.0,-109.0,852.0,-265.0,-252.0,-367.0,-825.0,-327.0,3
1287,-109.0,-203.0,-106.0,539.0,-267.0,-132.0,-424.0,-842.0,-338.0,3
1288,-114.0,-211.0,-96.0,193.0,-327.0,20.0,-448.0,-861.0,-312.0,3
1289,-92.0,-225.0,-83.0,-108.0,-424.0,189.0,-379.0,-900.0,-251.0,3
1290,-49.0,-240.0,-56.0,-335.0,-499.0,336.0,-243.0,-937.0,-154.0,3
1291,-7.0,-254.0,-35.0,-486.0,-507.0,470.0,-57.0,-1008.0,-46.0,3
1292,45.0,-282.0,-8.0,-576.0,-444.0,646.0,120.0,-1110.0,65.0,3
1293,82.0,-321.0,9.0,-651.0,-348.0,794.0,274.0,-1246.0,119.0,3
1294,94.0,-359.0,2.0,-715.0,-307.0,926.0,339.0,-1396.0,105.0,3
1295,82.0,-402.0,-10.0,-810.0,-315.0,1052.0,310.0,-1552.0,57.0,3
1296,63.0,-453.0,-11.0,-936.0,-359.0,1176.0,217.0,-1783.0,40.0,3
1297,43.0,-510.0,-13.0,-1071.0,-422.0,1288.0,156.0,-1993.0,44.0,3
1298,29.0,-571.0,-8.0,-1198.0,-482.0,1350.0,95.0,-2192.0,61.0,3
1299,4.0,-612.0,-6.0,-1266.0,-565.0,1339.0,15.0,-2327.0,60.0,3
1300,-7.0,-627.0,-13.0,-1225.0,-674.0,1260.0,-50.0,-2373.0,40.0,3
1301,-11.0,-622.0,-20.0,-1033.0,-777.0,1122.0,-71.0,-2333.0,14.0,3
1302,-7.0,-601.0,-20.0,-698.0,-849.0,944.0,-55.0,-2253.0,12.0,3
1303,0.0,-565.0,-20.0,-271.0,-889.0,749.0,-34.0,-2116.0,13.0,3
1304,6.0,-521.0,-28.0,161.0,-902.0,554.0,-10.0,-1976.0,-5.0,3
1305,3.0,-467.0,-34.0,500.0,-909.0,316.0,-14.0,-1811.0,-23.0,3
1306,8.0,-418.0,-42.0,691.0,-907.0,115.0,-8.0,-1655.0,-58.0,3
1307,4.0,-370.0,-49.0,698.0,-890.0,-95.0,-15.0,-1503.0,-87.0,3
1308,0.0,-328.0,-53.0,527.0,-844.0,-313.0,-26.0,-1362.0,-105.0,3
1309,6.0,-304.0,-57.0,219.0,-753.0,-513.0,-29.0,-1231.0,-114.0,3
1310,17.0,-277.0,-58.0,-181.0,-606.0,-702.0,19.0,-1128.0,-128.0,3
1311,30.0,-261.0,-53.0,-626.0,-414.0,-868.0,69.0,-1088.0,-117.0,3
1312,40.0,-261.0,-40.0,-1054.0,-202.0,-1010.0,101.0,-1053.0,-67.0,3
1313,34.0,-265.0,-29.0,-1392.0,1.0,-1113.0,85.0,-1061.0,-18.0,3
1314,29.0,-277.0,-21.0,-1621.0,165.0,-1165.0,74.0,-1097.0,31.0,3
1315,26.0,-294.0,-2.0,-1741.0,286.0,-1162.0,71.0,-1137.0,85.0,3
1316,25.0,-309.0,15.0,-1767.0,369.0,-1131.0,86.0,-1182.0,140.0,3
1317,15.0,-326.0,37.0,-1700.0,414.0,-1086.0,30.0,-1224.0,218.0,3
1318,19.0,-336.0,45.0,-1536.0,404.0,-995.0,61.0,-1273.0,262.0,3
1319,26.0,-341.0,53.0,-1310.0,315.0,-881.0,80.0,-1284.0,278.0,3
1320,28.0,-337.0,57.0,-998.0,198.0,-782.0,102.0,-1275.0,289.0,3
1321,28.0,-334.0,54.0,-733.0,56.0,-668.0,111.0,-1266.0,283.0,3
1322,25.0,-321.0,49.0,-482.0,-90.0,-551.0,97.0,-1229.0,281.0,3
1323,33.0,-317.0,43.0,-250.0,-227.0,-416.0,110.0,-1201.0,252.0,3
1324,31.0,-308.0,38.0,-76.0,-349.0,-318.0,109.0,-1175.0,241.0,3
1325,32.0,-295.0,44.0,46.0,-453.0,-230.0,108.0,-1139.0,259.0,3
1326,29.0,-277.0,49.0,157.0,-528.0,-152.0,101.0,-1078.0,263.0,3
1327,32.0,-267.0,46.0,266.0,-568.0,-75.0,100.0,-1016.0,275.0,3
1328,34.0,-253.0,49.0,362.0,-562.0,-5.0,100.0,-967.0,278.0,3
1329,31.0,-239.0,52.0,443.0,-520.0,46.0,84.0,-924.0,291.0,3
1330,23.0,-231.0,43.0,514.0,-462.0,83.0,66.0,-897.0,267.0,3
1331,9.0,-224.0,43.0,546.0,-400.0,105.0,22.0,-884.0,246.0,3
1332,-11.0,-201.0,34.0,550.0,-348.0,124.0,-49.0,-804.0,239.0,3
1333,-26.0,-177.0,29.0,553.0,-302.0,129.0,-103.0,-720.0,213.0,3
1334,-46.0,-155.0,19.0,536.0,-283.0,106.0,-181.0,-637.0,175.0,3
1335,-56.0,-135.0,8.0,469.0,-285.0,91.0,-224.0,-567.0,121.0,3
1336,-61.0,-126.0,-7.0,347.0,-295.0,74.0,-242.0,-511.0,74.0,3
1337,-57.0,-113.0,-18.0,178.0,-307.0,56.0,-240.0,-464.0,11.0,3
1338,-58.0,-96.0,-29.0,-21.0,-318.0,42.0,-233.0,-410.0,-12.0,3
1339,-50.0,-81.0,-30.0,-214.0,-326.0,63.0,-212.0,-358.0,-22.0,3
1340,-46.0,-79.0,-34.0,-383.0,-326.0,110.0,-182.0,-342.0,-44.0,3
1341,-35.0,-90.0,-45.0,-531.0,-326.0,207.0,-138.0,-376.0,-70.0,3
1342,-20.0,-109.0,-42.0,-637.0,-328.0,324.0,-94.0,-423.0,-65.0,3
1343,-12.0,-124.0,-36.0,-661.0,-336.0,434.0,-55.0,-466.0,-47.0,3
1344,-7.0,-131.0,-33.0,-582.0,-347.0,516.0,-47.0,-488.0,-34.0,3
1345,-9.0,-132.0,-25.0,-409.0,-365.0,574.0,-43.0,-496.0,-23.0,3
1346,-11.0,-131.0,-28.0,-166.0,-395.0,609.0,-42.0,-478.0,-14.0,3
1347,-12.0,-131.0,-29.0,162.0,-425.0,608.0,-60.0,-483.0,-25.0,3
1348,-19.0,-122.0,-38.0,421.0,-455.0,581.0,-71.0,-449.0,-38.0,3
1349,-18.0,-110.0,-36.0,664.0,-482.0,547.0,-84.0,-426.0,-57.0,3
1350,-19.0,-102.0,-46.0,871.0,-507.0,504.0,-92.0,-397.0,-94.0,3
1351,-25.0,-96.0,-69.0,1021.0,-522.0,475.0,-106.0,-369.0,-179.0,3
1352,-18.0,-85.0,-88.0,1116.0,-520.0,453.0,-96.0,-346.0,-263.0,3
1353,-15.0,-74.0,-128.0,1169.0,-508.0,445.0,-80.0,-312.0,-394.0,3
1354,-21.0,-68.0,-156.0,1159.0,-496.0,452.0,-107.0,-296.0,-551.0,3
1355,-37.0,-79.0,-194.0,1093.0,-477.0,480.0,-160.0,-337.0,-694.0,3
1356,-37.0,-105.0,-208.0,1038.0,-458.0,505.0,-160.0,-410.0,-754.0,3
1357,-29.0,-131.0,-202.0,1089.0,-438.0,526.0,-138.0,-484.0,-725.0,3
1358,-33.0,-155.0,-179.0,1285.0,-412.0,521.0,-152.0,-554.0,-631.0,3
1359,-37.0,-179.0,-148.0,1571.0,-378.0,492.0,-166.0,-652.0,-519.0,3
1360,-36.0,-192.0,-129.0,1930.0,-356.0,440.0,-171.0,-709.0,-423.0,3
1361,-26.0,-195.0,-126.0,2163.0,-344.0,389.0,-131.0,-757.0,-407.0,3
1362,0.0,-204.0,-144.0,2254.0,-360.0,322.0,-41.0,-809.0,-467.0,3
1363,21.0,-202.0,-163.0,2136.0,-410.0,223.0,48.0,-836.0,-562.0,3
1364,26.0,-189.0,-178.0,1782.0,-476.0,71.0,86.0,-833.0,-632.0,3
1365,25.0,-171.0,-174.0,1253.0,-531.0,-94.0,85.0,-754.0,-605.0,3
1366,15.0,-153.0,-141.0,650.0,-574.0,-229.0,39.0,-682.0,-483.0,3
1367,-1.0,-154.0,-108.0,79.0,-609.0,-309.0,-6.0,-670.0,-341.0,3
1368,-11.0,-186.0,-84.0,-395.0,-639.0,-369.0,-73.0,-770.0,-248.0,3
1369,-29.0,-229.0,-92.0,-779.0,-641.0,-461.0,-148.0,-933.0,-268.0,3
1370,-57.0,-300.0,-134.0,-1157.0,-593.0,-634.0,-252.0,-1206.0,-427.0,3
1371,-101.0,-370.0,-176.0,-1662.0,-485.0,-841.0,-424.0,-1487.0,-575.0,3
1372,-126.0,-424.0,-179.0,-2307.0,-309.0,-983.0,-561.0,-1757.0,-611.0,3
1373,-119.0,-513.0,-140.0,-3137.0,-15.0,-989.0,-530.0,-2052.0,-461.0,3
1374,-77.0,-605.0,-65.0,-3674.0,234.0,-965.0,-382.0,-2325.0,-181.0,3
1375,-35.0,-700.0,2.0,-3898.0,405.0,-912.0,-207.0,-2617.0,87.0,3
1376,1.0,-776.0,57.0,-3739.0,421.0,-845.0,-30.0,-2860.0,290.0,3
1377,33.0,-816.0,83.0,-3178.0,280.0,-734.0,96.0,-2986.0,396.0,3
1378,61.0,-814.0,89.0,-2272.0,69.0,-585.0,194.0,-2981.0,446.0,3
1379,74.0,-773.0,82.0,-1156.0,-119.0,-418.0,251.0,-2824.0,407.0,3
1380,70.0,-725.0,69.0,-19.0,-258.0,-267.0,247.0,-2615.0,344.0,3
1381,65.0,-645.0,47.0,1000.0,-358.0,-128.0,206.0,-2346.0,256.0,3
1382,52.0,-555.0,19.0,1829.0,-432.0,25.0,159.0,-2062.0,166.0,3
1383,36.0,-469.0,-3.0,2416.0,-498.0,204.0,107.0,-1774.0,77.0,3
1384,13.0,-381.0,-28.0,2738.0,-569.0,385.0,30.0,-1492.0,-5.0,3
1385,-3.0,-297.0,-41.0,2810.0,-646.0,591.0,-26.0,-1214.0,-63.0,3
1386,-13.0,-221.0,-53.0,2589.0,-738.0,729.0,-72.0,-955.0,-108.0,3
1387,-24.0,-167.0,-55.0,2194.0,-801.0,847.0,-99.0,-754.0,-121.0,3
1388,-26.0,-132.0,-53.0,1678.0,-846.0,930.0,-117.0,-622.0,-123.0,3
1389,-29.0,-120.0,-48.0,1118.0,-870.0,992.0,-134.0,-539.0,-107.0,3
1390,-36.0,-111.0,-43.0,574.0,-863.0,1042.0,-167.0,-514.0,-75.0,3
1391,-37.0,-122.0,-34.0,81.0,-824.0,1092.0,-168.0,-530.0,-45.0,3
1392,-33.0,-141.0,-22.0,-348.0,-744.0,1126.0,-164.0,-598.0,10.0,3
1393,-30.0,-171.0,-7.0,-704.0,-632.0,1160.0,-162.0,-701.0,85.0,3
1394,-32.0,-196.0,19.0,-976.0,-501.0,1173.0,-158.0,-781.0,163.0,3
1395,-36.0,-219.0,48.0,-1145.0,-380.0,1161.0,-151.0,-859.0,261.0,3
1396,-28.0,-250.0,68.0,-1212.0,-293.0,1102.0,-134.0,-924.0,356.0,3
1397,-26.0,-264.0,89.0,-1201.0,-242.0,1021.0,-114.0,-1006.0,445.0,3
1398,-23.0,-277.0,110.0,-1113.0,-212.0,889.0,-106.0,-1052.0,523.0,3
1399,-21.0,-289.0,122.0,-951.0,-181.0,774.0,-102.0,-1074.0,579.0,3
1400,-16.0,-295.0,133.0,-676.0,-137.0,667.0,-95.0,-1095.0,609.0,3
1401,-18.0,-297.0,137.0,-410.0,-89.0,570.0,-89.0,-1108.0,635.0,3
1402,-18.0,-292.0,138.0,-141.0,-57.0,469.0,-91.0,-1101.0,645.0,3
1403,-19.0,-288.0,130.0,112.0,-50.0,380.0,-102.0,-1084.0,625.0,3
1404,-23.0,-282.0,126.0,332.0,-67.0,292.0,-98.0,-1060.0,595.0,3
1405,-19.0,-268.0,104.0,511.0,-103.0,212.0,-92.0,-1024.0,530.0,3
1406,-10.0,-250.0,82.0,646.0,-148.0,126.0,-57.0,-952.0,428.0,3
1407,-9.0,-238.0,66.0,735.0,-187.0,47.0,-41.0,-903.0,334.0,3
1408,-5.0,-218.0,43.0,779.0,-216.0,-42.0,-36.0,-838.0,257.0,3
1409,-7.0,-198.0,24.0,789.0,-233.0,-117.0,-29.0,-776.0,175.0,3
1410,-5.0,-177.0,8.0,780.0,-241.0,-175.0,-35.0,-691.0,118.0,3
1411,2.0,-160.0,-7.0,765.0,-244.0,-204.0,-9.0,-631.0,68.0,3
1412,11.0,-142.0,-26.0,735.0,-242.0,-246.0,24.0,-583.0,3.0,3
1413,16.0,-135.0,-41.0,659.0,-234.0,-296.0,49.0,-543.0,-47.0,3
1414,27.0,-123.0,-48.0,558.0,-224.0,-366.0,77.0,-512.0,-84.0,3
1415,33.0,-116.0,-56.0,433.0,-216.0,-443.0,105.0,-492.0,-115.0,3
1416,35.0,-109.0,-58.0,287.0,-201.0,-527.0,119.0,-464.0,-136.0,3
1417,39.0,-102.0,-58.0,136.0,-179.0,-603.0,142.0,-419.0,-148.0,3
1418,43.0,-92.0,-63.0,-3.0,-143.0,-659.0,149.0,-397.0,-156.0,3
1419,48.0,-91.0,-64.0,-119.0,-96.0,-697.0,161.0,-379.0,-163.0,3
1420,44.0,-89.0,-65.0,-207.0,-42.0,-744.0,160.0,-359.0,-172.0,3
1421,41.0,-78.0,-68.0,-262.0,8.0,-783.0,139.0,-323.0,-183.0,3
1422,32.0,-77.0,-76.0,-266.0,51.0,-808.0,109.0,-311.0,-206.0,3
1423,28.0,-74.0,-88.0,-222.0,70.0,-808.0,95.0,-287.0,-253.0,3
1424,16.0,-69.0,-117.0,-137.0,64.0,-807.0,56.0,-275.0,-346.0,3
1425,5.0,-69.0,-131.0,-25.0,26.0,-793.0,14.0,-271.0,-454.0,3
1426,-9.0,-66.0,-160.0,119.0,-65.0,-788.0,-32.0,-265.0,-563.0,3
1427,-19.0,-66.0,-188.0,251.0,-178.0,-789.0,-73.0,-252.0,-663.0,3
1428,-30.0,-73.0,-200.0,412.0,-287.0,-790.0,-124.0,-271.0,-717.0,3
1429,-50.0,-83.0,-194.0,629.0,-354.0,-777.0,-210.0,-303.0,-706.0,3
1430,-56.0,-102.0,-180.0,908.0,-377.0,-741.0,-242.0,-365.0,-636.0,3
1431,-38.0,-126.0,-156.0,1205.0,-384.0,-692.0,-183.0,-455.0,-561.0,3
1432,-23.0,-135.0,-133.0,1448.0,-374.0,-676.0,-126.0,-519.0,-471.0,3
1433,-21.0,-140.0,-105.0,1588.0,-333.0,-668.0,-113.0,-547.0,-349.0,3
1434,-31.0,-141.0,-94.0,1613.0,-255.0,-644.0,-171.0,-584.0,-285.0,3
1435,-55.0,-149.0,-97.0,1495.0,-135.0,-593.0,-258.0,-657.0,-299.0,3
1436,-84.0,-168.0,-99.0,1217.0,1.0,-503.0,-366.0,-729.0,-321.0,3
1437,-111.0,-190.0,-103.0,836.0,124.0,-344.0,-468.0,-808.0,-319.0,3
1438,-127.0,-207.0,-93.0,448.0,217.0,-81.0,-520.0,-859.0,-296.0,3
1439,-102.0,-214.0,-91.0,101.0,300.0,155.0,-451.0,-890.0,-266.0,3
1440,-62.0,-219.0,-67.0,-308.0,391.0,351.0,-296.0,-903.0,-190.0,3
1441,-14.0,-239.0,-53.0,-660.0,508.0,506.0,-117.0,-972.0,-119.0,3
1442,29.0,-271.0,-45.0,-1037.0,606.0,645.0,56.0,-1102.0,-62.0,3
1443,51.0,-311.0,-42.0,-1415.0,615.0,802.0,193.0,-1256.0,-79.0,3
1444,63.0,-367.0,-64.0,-1752.0,510.0,978.0,244.0,-1463.0,-159.0,3
1445,69.0,-426.0,-66.0,-2046.0,301.0,1169.0,265.0,-1679.0,-201.0,3
1446,69.0,-490.0,-58.0,-2277.0,79.0,1322.0,262.0,-1885.0,-156.0,3
1447,66.0,-551.0,-30.0,-2407.0,-84.0,1432.0,244.0,-2092.0,-27.0,3
1448,54.0,-624.0,-1.0,-2409.0,-192.0,1483.0,198.0,-2371.0,86.0,3
1449,42.0,-681.0,15.0,-2239.0,-291.0,1465.0,135.0,-2536.0,152.0,3
1450,25.0,-710.0,18.0,-1859.0,-395.0,1367.0,75.0,-2621.0,168.0,3
1451,15.0,-707.0,12.0,-1267.0,-470.0,1219.0,18.0,-2616.0,151.0,3
1452,11.0,-694.0,12.0,-521.0,-491.0,976.0,-8.0,-2536.0,131.0,3
1453,6.0,-642.0,0.0,398.0,-464.0,719.0,-31.0,-2362.0,99.0,3
1454,-1.0,-575.0,-15.0,1023.0,-411.0,438.0,-45.0,-2156.0,46.0,3
1455,-1.0,-507.0,-24.0,1420.0,-344.0,156.0,-54.0,-1949.0,-5.0,3
1456,-2.0,-441.0,-45.0,1554.0,-262.0,-134.0,-57.0,-1744.0,-55.0,3
1457,2.0,-380.0,-49.0,1432.0,-180.0,-423.0,-34.0,-1549.0,-80.0,3
1458,10.0,-318.0,-48.0,1109.0,-96.0,-709.0,2.0,-1344.0,-98.0,3
1459,19.0,-267.0,-50.0,656.0,15.0,-972.0,24.0,-1156.0,-101.0,3
1460,29.0,-236.0,-51.0,145.0,169.0,-1199.0,54.0,-1019.0,-107.0,3
1461,24.0,-216.0,-45.0,-363.0,353.0,-1377.0,57.0,-901.0,-67.0,3
1462,15.0,-204.0,-39.0,-807.0,539.0,-1494.0,18.0,-851.0,-43.0,3
1463,9.0,-219.0,-27.0,-1179.0,697.0,-1525.0,1.0,-910.0,-11.0,3
1464,14.0,-248.0,-4.0,-1485.0,800.0,-1474.0,35.0,-980.0,74.0,3
1465,20.0,-271.0,14.0,-1683.0,840.0,-1363.0,64.0,-1065.0,152.0,3
1466,17.0,-307.0,42.0,-1759.0,816.0,-1261.0,54.0,-1162.0,248.0,3
1467,20.0,-329.0,60.0,-1675.0,740.0,-1128.0,73.0,-1252.0,313.0,3
1468,29.0,-347.0,69.0,-1488.0,629.0,-992.0,102.0,-1299.0,355.0,3
1469,30.0,-352.0,71.0,-1236.0,490.0,-862.0,110.0,-1326.0,365.0,3
1470,30.0,-347.0,71.0,-949.0,348.0,-727.0,122.0,-1301.0,371.0,3
1471,45.0,-342.0,72.0,-653.0,214.0,-590.0,156.0,-1285.0,364.0,3
1472,51.0,-328.0,70.0,-371.0,106.0,-471.0,182.0,-1246.0,364.0,3
1473,53.0,-310.0,71.0,-109.0,32.0,-361.0,187.0,-1178.0,372.0,3
1474,49.0,-293.0,66.0,127.0,-10.0,-267.0,166.0,-1122.0,349.0,3
1475,57.0,-280.0,61.0,302.0,-22.0,-181.0,201.0,-1066.0,329.0,3
1476,54.0,-261.0,57.0,438.0,-10.0,-130.0,194.0,-1011.0,303.0,3
1477,40.0,-241.0,54.0,547.0,24.0,-95.0,133.0,-920.0,304.0,3
1478,36.0,-225.0,49.0,647.0,75.0,-44.0,110.0,-869.0,280.0,3
1479,40.0,-218.0,39.0,742.0,146.0,24.0,125.0,-848.0,255.0,3
1480,25.0,-206.0,39.0,788.0,222.0,56.0,72.0,-801.0,243.0,3
1481,-4.0,-183.0,39.0,807.0,280.0,59.0,-29.0,-715.0,248.0,3
1482,-16.0,-145.0,19.0,813.0,307.0,66.0,-86.0,-586.0,177.0,3
1483,-23.0,-117.0,-10.0,797.0,345.0,67.0,-103.0,-488.0,72.0,3
1484,-32.0,-92.0,-30.0,691.0,354.0,69.0,-130.0,-415.0,-21.0,3
1485,-43.0,-68.0,-50.0,471.0,302.0,87.0,-160.0,-337.0,-94.0,3
1486,-41.0,-66.0,-71.0,160.0,208.0,147.0,-164.0,-315.0,-174.0,3
1487,-32.0,-68.0,-72.0,-209.0,102.0,261.0,-134.0,-320.0,-191.0,3
1488,-22.0,-75.0,-64.0,-547.0,22.0,411.0,-102.0,-329.0,-169.0,3
1489,-16.0,-83.0,-55.0,-792.0,-26.0,565.0,-78.0,-339.0,-123.0,3
1490,-12.0,-82.0,-51.0,-901.0,-50.0,699.0,-61.0,-324.0,-96.0,3
1491,-18.0,-84.0,-48.0,-873.0,-70.0,793.0,-81.0,-324.0,-100.0,3
1492,-25.0,-87.0,-52.0,-756.0,-100.0,827.0,-113.0,-328.0,-110.0,3
1493,-29.0,-83.0,-46.0,-561.0,-132.0,822.0,-120.0,-309.0,-100.0,3
1494,-42.0,-73.0,-43.0,-361.0,-160.0,783.0,-163.0,-264.0,-84.0,3
1495,-48.0,-66.0,-45.0,-131.0,-183.0,720.0,-195.0,-232.0,-89.0,3
1496,-50.0,-63.0,-56.0,91.0,-195.0,651.0,-209.0,-223.0,-121.0,3
1497,-54.0,-65.0,-54.0,285.0,-192.0,600.0,-219.0,-234.0,-132.0,3
1498,-47.0,-65.0,-58.0,463.0,-178.0,568.0,-213.0,-234.0,-145.0,3
1499,-48.0,-70.0,-69.0,629.0,-153.0,542.0,-202.0,-262.0,-175.0,3
1500,-38.0,-75.0,-87.0,773.0,-124.0,519.0,-181.0,-286.0,-241.0,3
1501,-30.0,-82.0,-118.0,901.0,-84.0,510.0,-138.0,-316.0,-345.0,3
1502,-16.0,-90.0,-149.0,1009.0,-32.0,514.0,-101.0,-342.0,-486.0,3
1503,-16.0,-104.0,-186.0,1098.0,25.0,537.0,-99.0,-386.0,-666.0,3
1504,-20.0,-116.0,-211.0,1207.0,74.0,534.0,-105.0,-429.0,-733.0,3
1505,-12.0,-128.0,-199.0,1396.0,108.0,507.0,-70.0,-466.0,-717.0,3
1506,-11.0,-145.0,-180.0,1740.0,129.0,473.0,-65.0,-538.0,-622.0,3
1507,-16.0,-166.0,-146.0,2078.0,144.0,433.0,-72.0,-619.0,-490.0,3
1508,-14.0,-183.0,-109.0,2412.0,152.0,383.0,-84.0,-679.0,-346.0,3
1509,-12.0,-196.0,-86.0,2722.0,140.0,323.0,-58.0,-734.0,-247.0,3
1510,9.0,-213.0,-87.0,2956.0,91.0,255.0,27.0,-828.0,-246.0,3
1511,42.0,-232.0,-114.0,2998.0,-14.0,152.0,143.0,-939.0,-350.0,3
1512,57.0,-244.0,-157.0,2713.0,-160.0,-38.0,219.0,-1050.0,-518.0,3
1513,44.0,-224.0,-177.0,2065.0,-283.0,-327.0,169.0,-1035.0,-616.0,3
1514,13.0,-197.0,-163.0,1188.0,-349.0,-604.0,65.0,-931.0,-606.0,3
1515,-13.0,-188.0,-138.0,280.0,-363.0,-758.0,-64.0,-844.0,-478.0,3
1516,-33.0,-200.0,-127.0,-505.0,-343.0,-784.0,-151.0,-854.0,-434.0,3
1517,-63.0,-231.0,-165.0,-1187.0,-354.0,-817.0,-275.0,-1022.0,-593.0,3
1518,-86.0,-288.0,-221.0,-1892.0,-410.0,-933.0,-386.0,-1246.0,-801.0,3
1519,-128.0,-356.0,-248.0,-2822.0,-382.0,-1080.0,-557.0,-1494.0,-892.0,3
1520,-143.0,-438.0,-226.0,-3563.0,-236.0,-1211.0,-639.0,-1757.0,-814.0,3
1521,-120.0,-539.0,-159.0,-4165.0,-21.0,-1290.0,-559.0,-2092.0,-559.0,3
1522,-97.0,-646.0,-66.0,-4511.0,204.0,-1316.0,-468.0,-2422.0,-218.0,3
1523,-64.0,-758.0,12.0,-4510.0,369.0,-1277.0,-325.0,-2772.0,105.0,3
1524,-40.0,-824.0,57.0,-4128.0,415.0,-1171.0,-179.0,-3074.0,321.0,3
1525,-14.0,-883.0,92.0,-3366.0,342.0,-998.0,-87.0,-3229.0,441.0,3
1526,16.0,-880.0,103.0,-2281.0,211.0,-763.0,18.0,-3223.0,488.0,3
1527,43.0,-829.0,105.0,-998.0,76.0,-517.0,125.0,-3041.0,488.0,3
1528,50.0,-735.0,88.0,293.0,-65.0,-304.0,164.0,-2736.0,447.0,3
1529,49.0,-624.0,62.0,1429.0,-198.0,-117.0,157.0,-2374.0,359.0,3
1530,36.0,-509.0,35.0,2286.0,-304.0,78.0,121.0,-2018.0,238.0,3
1531,26.0,-407.0,10.0,2800.0,-382.0,332.0,81.0,-1583.0,153.0,3
1532,17.0,-313.0,-1.0,2991.0,-440.0,544.0,63.0,-1277.0,84.0,3
1533,18.0,-255.0,-8.0,2850.0,-520.0,723.0,55.0,-1016.0,38.0,3
1534,14.0,-188.0,-20.0,2501.0,-621.0,859.0,47.0,-786.0,20.0,3
1535,8.0,-135.0,-14.0,2034.0,-728.0,965.0,28.0,-602.0,28.0,3
1536,8.0,-106.0,-14.0,1533.0,-815.0,1062.0,18.0,-493.0,20.0,3
1537,7.0,-96.0,-26.0,1031.0,-863.0,1143.0,10.0,-450.0,0.0,3
1538,7.0,-97.0,-30.0,529.0,-860.0,1213.0,6.0,-454.0,-21.0,3
1539,15.0,-117.0,-32.0,39.0,-803.0,1276.0,16.0,-511.0,-36.0,3
1540,26.0,-141.0,-28.0,-424.0,-700.0,1328.0,48.0,-591.0,-22.0,3
1541,30.0,-169.0,-14.0,-830.0,-572.0,1352.0,73.0,-676.0,19.0,3
1542,24.0,-190.0,0.0,-1152.0,-431.0,1366.0,64.0,-778.0,94.0,3
1543,12.0,-215.0,24.0,-1378.0,-296.0,1362.0,24.0,-850.0,182.0,3
1544,9.0,-243.0,50.0,-1504.0,-189.0,1328.0,13.0,-943.0,303.0,3
1545,8.0,-265.0,74.0,-1515.0,-122.0,1259.0,18.0,-1022.0,385.0,3
1546,9.0,-292.0,90.0,-1427.0,-108.0,1163.0,16.0,-1098.0,442.0,3
1547,6.0,-309.0,101.0,-1270.0,-108.0,1034.0,4.0,-1153.0,490.0,3
1548,-6.0,-319.0,106.0,-1060.0,-98.0,897.0,-31.0,-1181.0,526.0,3
1549,-2.0,-318.0,114.0,-802.0,-73.0,759.0,-26.0,-1177.0,546.0,3
1550,-1.0,-314.0,113.0,-518.0,-52.0,636.0,-15.0,-1165.0,541.0,3
1551,-6.0,-301.0,105.0,-232.0,-43.0,516.0,-34.0,-1138.0,512.0,3
1552,-11.0,-292.0,95.0,17.0,-44.0,412.0,-68.0,-1110.0,470.0,3
1553,-12.0,-286.0,88.0,211.0,-53.0,315.0,-73.0,-1085.0,427.0,3
1554,-19.0,-268.0,70.0,360.0,-71.0,227.0,-77.0,-1037.0,365.0,3
1555,-15.0,-256.0,55.0,469.0,-96.0,151.0,-87.0,-975.0,311.0,3
1556,-13.0,-239.0,43.0,556.0,-119.0,92.0,-83.0,-917.0,256.0,3
1557,-12.0,-221.0,27.0,618.0,-130.0,31.0,-62.0,-868.0,210.0,3
1558,-5.0,-205.0,17.0,663.0,-133.0,-13.0,-37.0,-798.0,160.0,3
1559,4.0,-188.0,6.0,671.0,-135.0,-74.0,-7.0,-738.0,114.0,3
1560,4.0,-178.0,-6.0,656.0,-136.0,-148.0,2.0,-687.0,72.0,3
1561,5.0,-160.0,-17.0,615.0,-134.0,-243.0,4.0,-641.0,28.0,3
1562,3.0,-148.0,-28.0,551.0,-129.0,-335.0,0.0,-595.0,-23.0,3
1563,6.0,-136.0,-41.0,469.0,-125.0,-419.0,8.0,-539.0,-64.0,3
1564,9.0,-127.0,-53.0,379.0,-121.0,-486.0,25.0,-502.0,-107.0,3
1565,19.0,-109.0,-57.0,288.0,-114.0,-545.0,51.0,-453.0,-139.0,3
1566,23.0,-100.0,-63.0,207.0,-101.0,-587.0,59.0,-415.0,-164.0,3
1567,25.0,-87.0,-73.0,132.0,-75.0,-619.0,79.0,-378.0,-194.0,3
1568,30.0,-77.0,-70.0,69.0,-28.0,-642.0,100.0,-333.0,-196.0,3
1569,32.0,-72.0,-71.0,32.0,40.0,-661.0,108.0,-287.0,-200.0,3
1570,33.0,-65.0,-73.0,19.0,114.0,-673.0,111.0,-255.0,-205.0,3
1571,32.0,-57.0,-78.0,33.0,189.0,-683.0,115.0,-228.0,-220.0,3
1572,25.0,-47.0,-96.0,88.0,218.0,-677.0,99.0,-191.0,-287.0,3
1573,23.0,-47.0,-121.0,157.0,215.0,-664.0,88.0,-183.0,-395.0,3
1574,17.0,-45.0,-151.0,211.0,191.0,-657.0,62.0,-196.0,-517.0,3
1575,5.0,-44.0,-174.0,242.0,137.0,-677.0,23.0,-186.0,-619.0,3
1576,-3.0,-48.0,-200.0,276.0,55.0,-700.0,-9.0,-187.0,-716.0,3
1577,-12.0,-65.0,-213.0,358.0,-36.0,-731.0,-57.0,-224.0,-771.0,3
1578,-33.0,-74.0,-206.0,516.0,-90.0,-749.0,-146.0,-276.0,-749.0,3
1579,-46.0,-106.0,-185.0,767.0,-113.0,-745.0,-187.0,-363.0,-653.0,3
1580,-45.0,-128.0,-152.0,1102.0,-147.0,-721.0,-171.0,-451.0,-532.0,3
1581,-32.0,-134.0,-129.0,1452.0,-207.0,-692.0,-136.0,-502.0,-435.0,3
1582,-16.0,-136.0,-106.0,1723.0,-251.0,-634.0,-95.0,-527.0,-343.0,3
1583,-10.0,-129.0,-102.0,1847.0,-240.0,-597.0,-72.0,-536.0,-299.0,3
1584,-25.0,-124.0,-99.0,1768.0,-127.0,-562.0,-113.0,-536.0,-295.0,3
1585,-58.0,-134.0,-107.0,1400.0,23.0,-488.0,-234.0,-587.0,-327.0,3
1586,-89.0,-165.0,-103.0,940.0,183.0,-338.0,-371.0,-713.0,-315.0,3
1587,-97.0,-192.0,-90.0,472.0,340.0,-111.0,-430.0,-828.0,-255.0,3
1588,-94.0,-218.0,-71.0,74.0,502.0,163.0,-410.0,-910.0,-192.0,3
1589,-66.0,-241.0,-55.0,-298.0,671.0,412.0,-282.0,-1020.0,-122.0,3
1590,-19.0,-264.0,-24.0,-719.0,827.0,602.0,-104.0,-1088.0,-12.0,3
1591,5.0,-287.0,-10.0,-1149.0,899.0,726.0,23.0,-1162.0,53.0,3
1592,40.0,-324.0,-42.0,-1555.0,816.0,855.0,162.0,-1318.0,-52.0,3
1593,62.0,-384.0,-89.0,-1971.0,559.0,1006.0,258.0,-1525.0,-250.0,3
1594,63.0,-450.0,-111.0,-2396.0,227.0,1189.0,255.0,-1764.0,-356.0,3
1595,60.0,-528.0,-87.0,-2763.0,-55.0,1383.0,218.0,-2004.0,-281.0,3
1596,56.0,-600.0,-54.0,-2991.0,-223.0,1546.0,192.0,-2300.0,-119.0,3
1597,38.0,-692.0,-4.0,-3025.0,-334.0,1574.0,141.0,-2589.0,70.0,3
1598,12.0,-758.0,30.0,-2717.0,-412.0,1455.0,19.0,-2794.0,200.0,3
1599,-17.0,-789.0,40.0,-2142.0,-473.0,1269.0,-112.0,-2902.0,234.0,3
1600,-47.0,-779.0,38.0,-1342.0,-484.0,1054.0,-234.0,-2851.0,247.0,3
1601,-63.0,-738.0,40.0,-420.0,-468.0,812.0,-304.0,-2699.0,251.0,3
1602,-71.0,-668.0,26.0,477.0,-457.0,554.0,-330.0,-2483.0,204.0,3
1603,-62.0,-589.0,5.0,1192.0,-443.0,279.0,-283.0,-2252.0,121.0,3
1604,-35.0,-515.0,-20.0,1626.0,-394.0,-14.0,-193.0,-2021.0,22.0,3
1605,-13.0,-453.0,-38.0,1739.0,-313.0,-348.0,-105.0,-1760.0,-59.0,3
1606,4.0,-376.0,-52.0,1566.0,-205.0,-669.0,-27.0,-1510.0,-124.0,3
1607,24.0,-309.0,-67.0,1176.0,-74.0,-952.0,35.0,-1279.0,-166.0,3
1608,37.0,-258.0,-67.0,646.0,76.0,-1164.0,91.0,-1101.0,-184.0,3
1609,45.0,-214.0,-54.0,66.0,246.0,-1313.0,113.0,-925.0,-142.0,3
1610,52.0,-196.0,-53.0,-463.0,457.0,-1393.0,154.0,-826.0,-110.0,3
1611,62.0,-195.0,-28.0,-975.0,620.0,-1411.0,196.0,-800.0,-52.0,3
1612,54.0,-213.0,-24.0,-1285.0,753.0,-1387.0,201.0,-843.0,-3.0,3
1613,45.0,-238.0,7.0,-1514.0,835.0,-1315.0,182.0,-922.0,106.0,3
1614,50.0,-264.0,20.0,-1627.0,845.0,-1177.0,179.0,-1056.0,179.0,3
1615,45.0,-304.0,38.0,-1646.0,788.0,-1029.0,177.0,-1170.0,248.0,3
1616,51.0,-327.0,60.0,-1568.0,672.0,-887.0,195.0,-1248.0,304.0,3
1617,51.0,-344.0,65.0,-1395.0,517.0,-758.0,199.0,-1287.0,334.0,3
1618,56.0,-350.0,62.0,-1144.0,362.0,-627.0,216.0,-1312.0,338.0,3
1619,58.0,-338.0,62.0,-841.0,221.0,-527.0,224.0,-1267.0,338.0,3
1620,56.0,-320.0,56.0,-516.0,104.0,-444.0,223.0,-1213.0,313.0,3
1621,69.0,-308.0,51.0,-220.0,21.0,-376.0,251.0,-1182.0,286.0,3
1622,67.0,-283.0,57.0,19.0,-23.0,-330.0,243.0,-1101.0,295.0,3
1623,63.0,-262.0,52.0,242.0,-46.0,-277.0,221.0,-993.0,297.0,3
1624,64.0,-242.0,43.0,500.0,-21.0,-210.0,225.0,-911.0,267.0,3
1625,69.0,-231.0,47.0,672.0,21.0,-189.0,259.0,-888.0,258.0,3
1626,59.0,-223.0,26.0,783.0,78.0,-187.0,215.0,-882.0,201.0,3
1627,49.0,-211.0,26.0,844.0,150.0,-156.0,158.0,-806.0,204.0,3
1628,33.0,-189.0,28.0,911.0,223.0,-92.0,103.0,-718.0,209.0,3
1629,22.0,-162.0,23.0,984.0,295.0,-50.0,55.0,-631.0,182.0,3
1630,-2.0,-131.0,5.0,1030.0,349.0,-44.0,-9.0,-529.0,121.0,3
1631,-23.0,-107.0,-15.0,1005.0,378.0,-59.0,-91.0,-447.0,43.0,3
1632,-38.0,-86.0,-25.0,896.0,370.0,-59.0,-160.0,-369.0,-24.0,3
1633,-62.0,-63.0,-47.0,719.0,326.0,-38.0,-240.0,-290.0,-102.0,3
1634,-72.0,-50.0,-67.0,490.0,258.0,39.0,-276.0,-247.0,-189.0,3
1635,-63.0,-39.0,-77.0,210.0,173.0,159.0,-243.0,-207.0,-225.0,3
1636,-48.0,-38.0,-103.0,-71.0,79.0,328.0,-187.0,-210.0,-304.0,3
1637,-38.0,-47.0,-115.0,-415.0,-22.0,468.0,-163.0,-226.0,-359.0,3
1638,-39.0,-64.0,-109.0,-671.0,-98.0,602.0,-154.0,-271.0,-363.0,3
1639,-45.0,-86.0,-96.0,-815.0,-160.0,710.0,-175.0,-319.0,-303.0,3
1640,-46.0,-101.0,-80.0,-821.0,-203.0,790.0,-186.0,-359.0,-231.0,3
1641,-50.0,-98.0,-60.0,-692.0,-228.0,813.0,-209.0,-336.0,-151.0,3
1642,-54.0,-86.0,-53.0,-444.0,-236.0,793.0,-228.0,-307.0,-119.0,3
1643,-59.0,-78.0,-50.0,-163.0,-229.0,751.0,-240.0,-281.0,-109.0,3
1644,-58.0,-75.0,-43.0,93.0,-215.0,702.0,-235.0,-272.0,-90.0,3
1645,-62.0,-69.0,-37.0,305.0,-200.0,651.0,-254.0,-248.0,-66.0,3
1646,-58.0,-66.0,-32.0,498.0,-188.0,622.0,-238.0,-235.0,-40.0,3
1647,-58.0,-60.0,-37.0,690.0,-181.0,590.0,-235.0,-220.0,-30.0,3
1648,-57.0,-60.0,-49.0,864.0,-180.0,573.0,-232.0,-221.0,-80.0,3
1649,-50.0,-63.0,-72.0,1008.0,-177.0,559.0,-207.0,-236.0,-176.0,3
1650,-34.0,-65.0,-103.0,1134.0,-161.0,564.0,-146.0,-264.0,-322.0,3
1651,-21.0,-77.0,-149.0,1199.0,-133.0,578.0,-96.0,-313.0,-492.0,3
1652,-15.0,-90.0,-182.0,1260.0,-98.0,584.0,-80.0,-341.0,-634.0,3
1653,-6.0,-109.0,-192.0,1388.0,-70.0,581.0,-46.0,-395.0,-692.0,3
1654,7.0,-127.0,-176.0,1627.0,-39.0,574.0,-4.0,-441.0,-613.0,3
1655,9.0,-147.0,-152.0,1942.0,3.0,548.0,7.0,-525.0,-518.0,3
1656,8.0,-164.0,-129.0,2282.0,58.0,509.0,2.0,-596.0,-424.0,3
1657,7.0,-179.0,-105.0,2606.0,108.0,455.0,13.0,-667.0,-331.0,3
1658,32.0,-195.0,-93.0,2893.0,119.0,401.0,103.0,-742.0,-268.0,3
1659,59.0,-217.0,-94.0,3073.0,53.0,307.0,253.0,-876.0,-291.0,3
1660,101.0,-252.0,-142.0,2995.0,-114.0,98.0,388.0,-1078.0,-482.0,3
1661,98.0,-255.0,-199.0,2476.0,-318.0,-279.0,354.0,-1141.0,-714.0,3
1662,61.0,-218.0,-227.0,1526.0,-438.0,-735.0,238.0,-1042.0,-828.0,3
1663,43.0,-183.0,-193.0,159.0,-428.0,-939.0,135.0,-870.0,-708.0,3
1664,17.0,-188.0,-155.0,-867.0,-383.0,-987.0,61.0,-835.0,-547.0,3
1665,4.0,-231.0,-158.0,-1753.0,-402.0,-1025.0,16.0,-955.0,-520.0,3
1666,-10.0,-308.0,-208.0,-2613.0,-471.0,-1190.0,-57.0,-1239.0,-677.0,3
1667,-46.0,-402.0,-266.0,-3502.0,-417.0,-1470.0,-248.0,-1570.0,-897.0,3
1668,-64.0,-480.0,-269.0,-4375.0,-128.0,-1709.0,-367.0,-2037.0,-961.0,3
1669,-77.0,-610.0,-219.0,-5112.0,308.0,-1830.0,-421.0,-2465.0,-729.0,3
1670,-78.0,-750.0,-113.0,-5541.0,750.0,-1783.0,-399.0,-2888.0,-314.0,3
1671,-62.0,-879.0,8.0,-5462.0,1067.0,-1617.0,-288.0,-3259.0,133.0,3
1672,-43.0,-971.0,85.0,-4778.0,1151.0,-1367.0,-183.0,-3534.0,420.0,3
1673,-13.0,-1005.0,128.0,-3570.0,997.0,-1046.0,-69.0,-3617.0,568.0,3
1674,25.0,-961.0,134.0,-2022.0,713.0,-707.0,74.0,-3500.0,619.0,3
1675,39.0,-870.0,133.0,-395.0,417.0,-417.0,138.0,-3201.0,611.0,3
1676,33.0,-748.0,106.0,1104.0,127.0,-233.0,105.0,-2816.0,539.0,3
1677,25.0,-647.0,83.0,2520.0,-25.0,-32.0,59.0,-2401.0,431.0,3
1678,9.0,-508.0,57.0,3269.0,-82.0,187.0,7.0,-1957.0,321.0,3
1679,-2.0,-381.0,30.0,3623.0,-89.0,399.0,-26.0,-1531.0,236.0,3
1680,-10.0,-272.0,12.0,3624.0,-96.0,576.0,-56.0,-1165.0,168.0,3
1681,-27.0,-188.0,10.0,3354.0,-157.0,696.0,-97.0,-855.0,132.0,3
1682,-38.0,-127.0,6.0,2913.0,-278.0,792.0,-129.0,-563.0,109.0,3
1683,-47.0,-78.0,7.0,2389.0,-442.0,889.0,-166.0,-413.0,100.0,3
1684,-49.0,-64.0,-6.0,1835.0,-619.0,994.0,-187.0,-321.0,67.0,3
1685,-49.0,-59.0,-20.0,1267.0,-771.0,1098.0,-192.0,-305.0,19.0,3
1686,-43.0,-61.0,-26.0,686.0,-862.0,1198.0,-173.0,-327.0,-19.0,3
1687,-25.0,-76.0,-34.0,106.0,-868.0,1284.0,-134.0,-380.0,-38.0,3
1688,-19.0,-98.0,-32.0,-448.0,-793.0,1366.0,-109.0,-454.0,-27.0,3
1689,-18.0,-125.0,-19.0,-946.0,-623.0,1423.0,-110.0,-541.0,18.0,3
1690,-27.0,-154.0,7.0,-1419.0,-460.0,1464.0,-131.0,-633.0,102.0,3
1691,-24.0,-183.0,32.0,-1683.0,-324.0,1472.0,-123.0,-712.0,199.0,3
1692,-13.0,-216.0,60.0,-1815.0,-241.0,1434.0,-88.0,-813.0,301.0,3
1693,-10.0,-246.0,81.0,-1818.0,-218.0,1336.0,-49.0,-903.0,404.0,3
1694,-5.0,-266.0,98.0,-1705.0,-241.0,1216.0,-28.0,-977.0,479.0,3
1695,0.0,-285.0,112.0,-1496.0,-269.0,1097.0,-18.0,-1038.0,532.0,3
1696,5.0,-292.0,117.0,-1218.0,-271.0,981.0,-3.0,-1088.0,565.0,3
1697,11.0,-296.0,122.0,-892.0,-246.0,877.0,14.0,-1100.0,565.0,3
1698,12.0,-295.0,117.0,-553.0,-213.0,786.0,32.0,-1094.0,552.0,3
1699,7.0,-290.0,109.0,-237.0,-183.0,694.0,9.0,-1078.0,514.0,3
1700,0.0,-280.0,90.0,40.0,-159.0,605.0,-19.0,-1059.0,463.0,3
1701,-8.0,-264.0,74.0,264.0,-147.0,511.0,-56.0,-1013.0,396.0,3
1702,-9.0,-249.0,55.0,435.0,-142.0,422.0,-61.0,-952.0,320.0,3
1703,-8.0,-233.0,34.0,571.0,-138.0,356.0,-41.0,-895.0,235.0,3
1704,-8.0,-217.0,17.0,627.0,-128.0,284.0,-47.0,-835.0,167.0,3
1705,-1.0,-198.0,-2.0,646.0,-108.0,205.0,-26.0,-779.0,99.0,3
1706,0.0,-186.0,-16.0,629.0,-78.0,113.0,-13.0,-731.0,31.0,3
1707,5.0,-177.0,-35.0,576.0,-45.0,5.0,8.0,-709.0,-24.0,3
1708,5.0,-170.0,-45.0,494.0,-18.0,-120.0,10.0,-684.0,-77.0,3
1709,12.0,-162.0,-56.0,396.0,-5.0,-236.0,18.0,-651.0,-125.0,3
1710,19.0,-154.0,-60.0,289.0,10.0,-342.0,48.0,-620.0,-150.0,3
1711,20.0,-150.0,-63.0,191.0,28.0,-437.0,63.0,-588.0,-168.0,3
1712,30.0,-136.0,-67.0,114.0,55.0,-521.0,81.0,-558.0,-184.0,3
1713,30.0,-131.0,-69.0,53.0,93.0,-592.0,96.0,-525.0,-184.0,3
1714,40.0,-124.0,-73.0,16.0,138.0,-641.0,135.0,-486.0,-189.0,3
1715,42.0,-113.0,-71.0,-11.0,188.0,-682.0,144.0,-453.0,-195.0,3
1716,51.0,-105.0,-65.0,-37.0,251.0,-704.0,172.0,-416.0,-179.0,3
1717,52.0,-92.0,-66.0,-44.0,304.0,-725.0,174.0,-366.0,-171.0,3
1718,52.0,-79.0,-65.0,-26.0,355.0,-741.0,180.0,-316.0,-168.0,3
1719,52.0,-70.0,-67.0,20.0,408.0,-757.0,188.0,-281.0,-173.0,3
1720,47.0,-55.0,-69.0,89.0,449.0,-774.0,176.0,-227.0,-182.0,3
1721,41.0,-46.0,-81.0,174.0,471.0,-787.0,148.0,-188.0,-226.0,3
1722,31.0,-39.0,-101.0,261.0,461.0,-797.0,116.0,-163.0,-306.0,3
1723,13.0,-35.0,-131.0,327.0,412.0,-812.0,57.0,-140.0,-429.0,3
1724,-7.0,-22.0,-165.0,355.0,315.0,-833.0,-10.0,-118.0,-570.0,3
1725,-15.0,-23.0,-191.0,331.0,162.0,-857.0,-62.0,-112.0,-702.0,3
1726,-41.0,-31.0,-228.0,299.0,-3.0,-888.0,-164.0,-145.0,-830.0,3
1727,-69.0,-53.0,-233.0,311.0,-121.0,-908.0,-278.0,-188.0,-860.0,3
1728,-83.0,-91.0,-212.0,464.0,-198.0,-870.0,-326.0,-292.0,-794.0,3
1729,-75.0,-136.0,-185.0,916.0,-317.0,-799.0,-293.0,-449.0,-680.0,3
1730,-42.0,-169.0,-146.0,1412.0,-429.0,-706.0,-207.0,-584.0,-527.0,3
1731,-24.0,-184.0,-113.0,1869.0,-489.0,-588.0,-129.0,-688.0,-356.0,3
1732,-17.0,-194.0,-80.0,2151.0,-419.0,-488.0,-128.0,-776.0,-227.0,3
1733,-48.0,-213.0,-78.0,2132.0,-197.0,-393.0,-248.0,-900.0,-201.0,3
1734,-98.0,-239.0,-94.0,1751.0,131.0,-217.0,-439.0,-1041.0,-266.0,3
1735,-115.0,-260.0,-120.0,1111.0,465.0,102.0,-501.0,-1132.0,-365.0,3
1736,-91.0,-259.0,-135.0,375.0,711.0,480.0,-417.0,-1140.0,-454.0,3
1737,-47.0,-256.0,-119.0,-366.0,882.0,779.0,-259.0,-1113.0,-386.0,3
1738,-3.0,-237.0,-65.0,-1072.0,1022.0,927.0,-33.0,-1001.0,-204.0,3
1739,12.0,-228.0,-38.0,-1695.0,1082.0,1016.0,65.0,-976.0,-40.0,3
1740,23.0,-270.0,-31.0,-2226.0,959.0,1223.0,146.0,-1161.0,-33.0,3
1741,37.0,-395.0,-69.0,-2631.0,642.0,1632.0,165.0,-1595.0,-192.0,3
1742,44.0,-530.0,-92.0,-2824.0,235.0,1915.0,161.0,-2053.0,-273.0,3
1743,60.0,-643.0,-81.0,-2770.0,71.0,2049.0,188.0,-2446.0,-233.0,3
1744,63.0,-735.0,-45.0,-2582.0,45.0,2022.0,209.0,-2768.0,-81.0,3
1745,39.0,-798.0,3.0,-2304.0,48.0,1850.0,132.0,-2981.0,83.0,3
1746,-2.0,-822.0,39.0,-1891.0,23.0,1576.0,-4.0,-3065.0,215.0,3
1747,-45.0,-811.0,49.0,-1295.0,-17.0,1275.0,-176.0,-3018.0,268.0,3
1748,-75.0,-772.0,58.0,-557.0,-60.0,986.0,-331.0,-2852.0,308.0,3
1749,-90.0,-706.0,57.0,206.0,-131.0,706.0,-386.0,-2623.0,311.0,3
1750,-89.0,-627.0,42.0,857.0,-215.0,405.0,-394.0,-2366.0,270.0,3
1751,-73.0,-551.0,19.0,1333.0,-265.0,93.0,-337.0,-2061.0,174.0,3
1752,-44.0,-466.0,-2.0,1593.0,-251.0,-230.0,-220.0,-1789.0,92.0,3
1753,-21.0,-391.0,-23.0,1612.0,-170.0,-537.0,-127.0,-1557.0,14.0,3
1754,-12.0,-320.0,-35.0,1390.0,-41.0,-873.0,-93.0,-1322.0,-50.0,3
1755,-2.0,-258.0,-47.0,971.0,150.0,-1078.0,-51.0,-1106.0,-78.0,3
1756,10.0,-208.0,-47.0,315.0,313.0,-1244.0,-6.0,-915.0,-93.0,3
1757,25.0,-182.0,-49.0,-259.0,474.0,-1353.0,69.0,-767.0,-76.0,3
1758,47.0,-163.0,-50.0,-773.0,616.0,-1421.0,147.0,-714.0,-103.0,3
1759,43.0,-165.0,-42.0,-1202.0,743.0,-1467.0,139.0,-675.0,-77.0,3
1760,36.0,-177.0,-22.0,-1493.0,855.0,-1489.0,114.0,-708.0,-8.0,3
1761,28.0,-199.0,-11.0,-1654.0,935.0,-1462.0,98.0,-792.0,40.0,3
1762,33.0,-221.0,0.0,-1748.0,971.0,-1365.0,106.0,-864.0,88.0,3
1763,38.0,-238.0,21.0,-1789.0,961.0,-1231.0,148.0,-909.0,166.0,3
1764,29.0,-266.0,45.0,-1768.0,911.0,-1088.0,100.0,-1001.0,235.0,3
1765,31.0,-292.0,57.0,-1673.0,823.0,-900.0,124.0,-1102.0,308.0,3
1766,31.0,-301.0,66.0,-1506.0,693.0,-738.0,120.0,-1145.0,340.0,3
1767,27.0,-310.0,65.0,-1302.0,538.0,-588.0,117.0,-1170.0,343.0,3
1768,43.0,-312.0,69.0,-1077.0,365.0,-394.0,154.0,-1182.0,357.0,3
1769,49.0,-310.0,77.0,-794.0,250.0,-239.0,181.0,-1173.0,383.0,3
1770,51.0,-295.0,79.0,-542.0,169.0,-113.0,181.0,-1124.0,400.0,3
1771,59.0,-287.0,73.0,-290.0,120.0,-2.0,218.0,-1100.0,387.0,3
1772,56.0,-276.0,71.0,-54.0,101.0,42.0,207.0,-1050.0,374.0,3
1773,53.0,-265.0,64.0,181.0,107.0,76.0,195.0,-1017.0,339.0,3
1774,50.0,-256.0,58.0,390.0,138.0,93.0,169.0,-980.0,305.0,3
1775,46.0,-250.0,54.0,580.0,185.0,109.0,151.0,-923.0,305.0,3
1776,41.0,-230.0,49.0,787.0,247.0,111.0,121.0,-860.0,287.0,3
1777,24.0,-204.0,40.0,999.0,321.0,95.0,65.0,-773.0,248.0,3
1778,9.0,-170.0,24.0,1165.0,390.0,71.0,16.0,-668.0,205.0,3
1779,-2.0,-133.0,6.0,1259.0,438.0,46.0,-7.0,-520.0,98.0,3
1780,-12.0,-96.0,-28.0,1245.0,450.0,1.0,-46.0,-415.0,-14.0,3
1781,-17.0,-63.0,-54.0,1101.0,410.0,-37.0,-67.0,-303.0,-134.0,3
1782,-25.0,-38.0,-89.0,763.0,340.0,-33.0,-100.0,-222.0,-256.0,3
1783,-32.0,-36.0,-121.0,362.0,246.0,55.0,-129.0,-228.0,-380.0,3
1784,-31.0,-49.0,-122.0,-109.0,144.0,224.0,-123.0,-267.0,-411.0,3
1785,-23.0,-65.0,-117.0,-516.0,45.0,409.0,-78.0,-301.0,-381.0,3
1786,-21.0,-74.0,-105.0,-764.0,-40.0,526.0,-78.0,-306.0,-345.0,3
1787,-23.0,-76.0,-95.0,-844.0,-104.0,588.0,-100.0,-302.0,-291.0,3
1788,-28.0,-83.0,-80.0,-771.0,-144.0,605.0,-110.0,-296.0,-247.0,3
1789,-26.0,-82.0,-71.0,-601.0,-165.0,597.0,-117.0,-293.0,-217.0,3
1790,-24.0,-80.0,-60.0,-383.0,-168.0,555.0,-105.0,-278.0,-166.0,3
1791,-27.0,-65.0,-48.0,-129.0,-160.0,489.0,-111.0,-225.0,-121.0,3
1792,-34.0,-52.0,-53.0,143.0,-146.0,416.0,-139.0,-180.0,-105.0,3
1793,-38.0,-51.0,-52.0,379.0,-124.0,347.0,-175.0,-173.0,-120.0,3
1794,-43.0,-48.0,-56.0,551.0,-92.0,278.0,-188.0,-186.0,-130.0,3
1795,-50.0,-65.0,-85.0,684.0,-51.0,238.0,-189.0,-193.0,-178.0,3
1796,-36.0,-55.0,-88.0,753.0,-8.0,203.0,-171.0,-208.0,-261.0,3
1797,-27.0,-55.0,-122.0,795.0,53.0,186.0,-135.0,-224.0,-401.0,3
1798,-29.0,-61.0,-181.0,798.0,131.0,183.0,-143.0,-255.0,-624.0,3
1799,-32.0,-78.0,-227.0,767.0,226.0,194.0,-157.0,-310.0,-815.0,3
1800,-15.0,-105.0,-248.0,797.0,328.0,196.0,-105.0,-376.0,-908.0,3
1801,-16.0,-140.0,-239.0,989.0,434.0,190.0,-89.0,-478.0,-887.0,3
1802,-18.0,-164.0,-224.0,1339.0,537.0,158.0,-108.0,-593.0,-812.0,3
1803,-24.0,-199.0,-196.0,1773.0,621.0,102.0,-125.0,-718.0,-709.0,3
1804,-26.0,-222.0,-155.0,2208.0,664.0,26.0,-117.0,-816.0,-551.0,3
1805,-14.0,-240.0,-104.0,2607.0,630.0,-39.0,-58.0,-893.0,-366.0,3
1806,6.0,-252.0,-77.0,2893.0,468.0,-125.0,40.0,-971.0,-220.0,3
1807,28.0,-260.0,-96.0,2927.0,171.0,-314.0,131.0,-1103.0,-296.0,3
1808,34.0,-249.0,-136.0,2405.0,-200.0,-564.0,117.0,-1108.0,-445.0,3
1809,23.0,-223.0,-141.0,1558.0,-363.0,-803.0,43.0,-1020.0,-472.0,3
1810,-12.0,-211.0,-132.0,608.0,-350.0,-950.0,-68.0,-952.0,-453.0,3
1811,-44.0,-213.0,-144.0,-280.0,-268.0,-997.0,-213.0,-970.0,-508.0,3
1812,-71.0,-250.0,-174.0,-1157.0,-283.0,-1043.0,-288.0,-1112.0,-645.0,3
1813,-87.0,-350.0,-239.0,-2059.0,-381.0,-1181.0,-375.0,-1495.0,-862.0,3
1814,-108.0,-458.0,-303.0,-2991.0,-374.0,-1427.0,-514.0,-1910.0,-1095.0,3
1815,-137.0,-572.0,-317.0,-3963.0,-160.0,-1593.0,-629.0,-2311.0,-1180.0,3
1816,-129.0,-699.0,-254.0,-4866.0,179.0,-1543.0,-623.0,-2703.0,-955.0,3
1817,-87.0,-828.0,-106.0,-5396.0,495.0,-1295.0,-450.0,-3071.0,-448.0,3
1818,-39.0,-927.0,39.0,-5255.0,685.0,-974.0,-248.0,-3338.0,125.0,3
1819,-9.0,-969.0,129.0,-4380.0,710.0,-657.0,-79.0,-3493.0,513.0,3
1820,2.0,-960.0,160.0,-2982.0,566.0,-365.0,-6.0,-3418.0,727.0,3
1821,8.0,-897.0,161.0,-1383.0,261.0,-207.0,20.0,-3193.0,724.0,3
1822,8.0,-790.0,143.0,417.0,11.0,-111.0,12.0,-2840.0,664.0,3
1823,13.0,-669.0,120.0,1636.0,-176.0,-9.0,23.0,-2439.0,559.0,3
1824,17.0,-534.0,93.0,2506.0,-284.0,105.0,32.0,-2002.0,467.0,3
1825,23.0,-400.0,72.0,3009.0,-325.0,248.0,63.0,-1561.0,368.0,3
1826,21.0,-280.0,47.0,3164.0,-340.0,388.0,75.0,-1169.0,285.0,3
1827,4.0,-188.0,28.0,3030.0,-385.0,505.0,31.0,-834.0,225.0,3
1828,-13.0,-119.0,18.0,2701.0,-504.0,614.0,-25.0,-581.0,166.0,3
1829,-23.0,-95.0,6.0,2261.0,-701.0,729.0,-80.0,-433.0,109.0,3
1830,-33.0,-73.0,-7.0,1777.0,-932.0,843.0,-112.0,-363.0,57.0,3
1831,-35.0,-73.0,-27.0,1303.0,-1142.0,953.0,-132.0,-348.0,-3.0,3
1832,-28.0,-81.0,-46.0,846.0,-1278.0,1040.0,-127.0,-374.0,-72.0,3
1833,-16.0,-95.0,-56.0,407.0,-1314.0,1110.0,-105.0,-425.0,-140.0,3
1834,-8.0,-108.0,-64.0,-16.0,-1230.0,1153.0,-71.0,-478.0,-153.0,3
1835,-4.0,-127.0,-63.0,-465.0,-1079.0,1169.0,-60.0,-532.0,-147.0,3
1836,-12.0,-141.0,-55.0,-787.0,-878.0,1173.0,-93.0,-591.0,-131.0,3
1837,-5.0,-163.0,-39.0,-1053.0,-663.0,1171.0,-56.0,-655.0,-65.0,3
1838,-4.0,-179.0,-21.0,-1258.0,-483.0,1126.0,-38.0,-723.0,18.0,3
1839,0.0,-201.0,2.0,-1387.0,-357.0,1058.0,-22.0,-790.0,113.0,3
1840,7.0,-219.0,32.0,-1442.0,-283.0,968.0,2.0,-847.0,209.0,3
1841,10.0,-242.0,51.0,-1423.0,-250.0,870.0,24.0,-909.0,289.0,3
1842,6.0,-256.0,70.0,-1328.0,-221.0,764.0,8.0,-955.0,351.0,3
1843,8.0,-273.0,79.0,-1157.0,-176.0,684.0,2.0,-1014.0,410.0,3
1844,6.0,-284.0,91.0,-925.0,-122.0,608.0,7.0,-1064.0,452.0,3
1845,11.0,-300.0,92.0,-652.0,-88.0,535.0,26.0,-1108.0,465.0,3
1846,16.0,-310.0,83.0,-362.0,-75.0,450.0,31.0,-1150.0,434.0,3
1847,12.0,-314.0,71.0,-78.0,-79.0,347.0,22.0,-1165.0,384.0,3
1848,5.0,-309.0,50.0,214.0,-92.0,258.0,6.0,-1163.0,297.0,3
1849,0.0,-302.0,35.0,401.0,-103.0,178.0,-19.0,-1143.0,238.0,3
1850,0.0,-282.0,25.0,538.0,-110.0,103.0,-21.0,-1064.0,182.0,3
1851,-6.0,-257.0,11.0,649.0,-115.0,41.0,-33.0,-976.0,136.0,3
1852,1.0,-229.0,1.0,740.0,-109.0,-12.0,-11.0,-880.0,107.0,3
1853,12.0,-211.0,-10.0,818.0,-99.0,-58.0,26.0,-820.0,52.0,3
1854,20.0,-192.0,-25.0,858.0,-80.0,-130.0,56.0,-760.0,-9.0,3
1855,23.0,-173.0,-35.0,842.0,-47.0,-218.0,55.0,-693.0,-56.0,3
1856,23.0,-157.0,-46.0,785.0,-4.0,-303.0,69.0,-636.0,-81.0,3
1857,26.0,-140.0,-52.0,724.0,47.0,-369.0,73.0,-565.0,-115.0,3
1858,26.0,-125.0,-56.0,659.0,99.0,-423.0,82.0,-514.0,-138.0,3
1859,24.0,-114.0,-68.0,583.0,159.0,-470.0,81.0,-460.0,-172.0,3
1860,30.0,-102.0,-70.0,497.0,228.0,-514.0,103.0,-418.0,-190.0,3
1861,34.0,-90.0,-71.0,411.0,319.0,-555.0,103.0,-378.0,-184.0,3
1862,35.0,-81.0,-66.0,330.0,391.0,-573.0,109.0,-328.0,-180.0,3
1863,34.0,-68.0,-60.0,292.0,456.0,-572.0,113.0,-290.0,-152.0,3
1864,38.0,-58.0,-56.0,280.0,514.0,-564.0,122.0,-248.0,-135.0,3
1865,41.0,-51.0,-52.0,294.0,563.0,-556.0,130.0,-199.0,-114.0,3
1866,42.0,-41.0,-48.0,338.0,598.0,-549.0,145.0,-169.0,-92.0,3
1867,45.0,-29.0,-42.0,399.0,619.0,-542.0,159.0,-111.0,-83.0,3
1868,43.0,-9.0,-42.0,465.0,622.0,-544.0,161.0,-63.0,-80.0,3
1869,38.0,-2.0,-58.0,511.0,612.0,-544.0,160.0,-26.0,-127.0,3
1870,39.0,-1.0,-84.0,518.0,576.0,-562.0,145.0,-17.0,-231.0,3
1871,21.0,2.0,-118.0,464.0,498.0,-603.0,98.0,-23.0,-366.0,3
1872,-4.0,6.0,-164.0,351.0,365.0,-663.0,16.0,-16.0,-535.0,3
1873,-25.0,9.0,-208.0,167.0,165.0,-708.0,-54.0,-20.0,-713.0,3
1874,-45.0,-3.0,-238.0,-47.0,-121.0,-772.0,-154.0,-46.0,-878.0,3
1875,-84.0,-30.0,-255.0,-180.0,-331.0,-820.0,-315.0,-102.0,-951.0,3
1876,-107.0,-78.0,-251.0,-6.0,-467.0,-813.0,-428.0,-273.0,-919.0,3
1877,-89.0,-126.0,-237.0,412.0,-534.0,-758.0,-361.0,-431.0,-861.0,3
1878,-51.0,-155.0,-199.0,916.0,-563.0,-664.0,-224.0,-567.0,-737.0,3
1879,-4.0,-170.0,-159.0,1335.0,-541.0,-539.0,-56.0,-667.0,-557.0,3
1880,26.0,-169.0,-92.0,1559.0,-429.0,-430.0,45.0,-679.0,-301.0,3
1881,20.0,-167.0,-46.0,1559.0,-198.0,-345.0,9.0,-708.0,-105.0,3
1882,-16.0,-206.0,-44.0,1286.0,143.0,-213.0,-127.0,-874.0,-64.0,3
1883,-54.0,-246.0,-55.0,754.0,529.0,30.0,-280.0,-1085.0,-111.0,3
1884,-83.0,-294.0,-82.0,143.0,875.0,358.0,-387.0,-1226.0,-230.0,3
