,acc1_x,acc1_y,acc1_z,gyro_x,gyro_y,gyro_z,acc2_x,acc2_y,acc2_z,label
0,20.0,-257.0,-82.0,-19.0,12.0,-7.0,-6.0,-983.0,-185.0,3
1,21.0,-257.0,-85.0,-18.0,11.0,-8.0,-3.0,-984.0,-183.0,3
2,19.0,-257.0,-83.0,-18.0,11.0,-8.0,-6.0,-983.0,-184.0,3
3,19.0,-255.0,-86.0,-21.0,10.0,-8.0,-7.0,-978.0,-181.0,3
4,31.0,-259.0,-63.0,-25.0,10.0,-7.0,-9.0,-982.0,-178.0,3
5,18.0,-258.0,-85.0,-27.0,9.0,-6.0,-12.0,-982.0,-182.0,3
6,19.0,-257.0,-85.0,-28.0,9.0,-6.0,-6.0,-982.0,-181.0,3
7,22.0,-258.0,-90.0,-32.0,9.0,-5.0,-14.0,-985.0,-181.0,3
8,17.0,-258.0,-90.0,-30.0,10.0,-5.0,-10.0,-982.0,-179.0,3
9,21.0,-260.0,-85.0,-29.0,9.0,-5.0,-5.0,-985.0,-186.0,3
10,21.0,-259.0,-87.0,-27.0,9.0,-4.0,-5.0,-984.0,-179.0,3
11,20.0,-258.0,-87.0,-24.0,11.0,-5.0,-13.0,-988.0,-180.0,3
12,18.0,-257.0,-87.0,-22.0,12.0,-5.0,-7.0,-985.0,-188.0,3
13,17.0,-256.0,-85.0,-20.0,14.0,-6.0,-6.0,-988.0,-180.0,3
14,20.0,-260.0,-91.0,-19.0,15.0,-8.0,-4.0,-983.0,-184.0,3
15,18.0,-259.0,-86.0,-19.0,16.0,-7.0,-6.0,-978.0,-182.0,3
16,21.0,-258.0,-84.0,-20.0,16.0,-8.0,-6.0,-982.0,-185.0,3
17,20.0,-259.0,-85.0,-21.0,15.0,-7.0,-6.0,-985.0,-185.0,3
18,17.0,-254.0,-85.0,-22.0,13.0,-7.0,-12.0,-978.0,-185.0,3
19,19.0,-258.0,-83.0,-23.0,12.0,-7.0,-3.0,-979.0,-191.0,3
20,20.0,-258.0,-85.0,-24.0,11.0,-7.0,-7.0,-981.0,-184.0,3
21,18.0,-257.0,-86.0,-25.0,9.0,-5.0,-12.0,-983.0,-185.0,3
22,18.0,-259.0,-88.0,-25.0,8.0,-3.0,-2.0,-977.0,-187.0,3
23,18.0,-259.0,-86.0,-27.0,9.0,-3.0,-12.0,-983.0,-181.0,3
24,17.0,-256.0,-86.0,-27.0,9.0,-3.0,-4.0,-985.0,-180.0,3
25,19.0,-259.0,-88.0,-29.0,8.0,-3.0,-8.0,-985.0,-182.0,3
26,18.0,-258.0,-85.0,-28.0,9.0,-4.0,-2.0,-978.0,-181.0,3
27,19.0,-261.0,-86.0,-29.0,10.0,-4.0,-6.0,-981.0,-179.0,3
28,18.0,-260.0,-83.0,-28.0,13.0,-5.0,-5.0,-984.0,-180.0,3
29,21.0,-257.0,-87.0,-29.0,14.0,-4.0,-4.0,-984.0,-185.0,3
30,20.0,-257.0,-85.0,-29.0,17.0,-3.0,-5.0,-981.0,-180.0,3
31,18.0,-259.0,-89.0,-30.0,18.0,-5.0,-8.0,-985.0,-183.0,3
32,21.0,-259.0,-87.0,-30.0,18.0,-5.0,-6.0,-980.0,-181.0,3
33,17.0,-257.0,-87.0,-29.0,16.0,-4.0,-10.0,-983.0,-177.0,3
34,21.0,-257.0,-82.0,-29.0,17.0,-5.0,-2.0,-989.0,-180.0,3
35,20.0,-257.0,-87.0,-28.0,17.0,-5.0,-3.0,-980.0,-180.0,3
36,21.0,-258.0,-84.0,-26.0,17.0,-5.0,-5.0,-981.0,-176.0,3
37,17.0,-257.0,-84.0,-26.0,16.0,-5.0,-4.0,-981.0,-180.0,3
38,21.0,-259.0,-84.0,-27.0,16.0,-5.0,-8.0,-986.0,-181.0,3
39,20.0,-258.0,-86.0,-27.0,17.0,-5.0,-11.0,-985.0,-179.0,3
40,18.0,-258.0,-86.0,-25.0,16.0,-7.0,-7.0,-986.0,-180.0,3
41,19.0,-257.0,-88.0,-26.0,15.0,-5.0,-3.0,-984.0,-183.0,3
42,19.0,-257.0,-84.0,-25.0,17.0,-4.0,-11.0,-981.0,-180.0,3
43,18.0,-258.0,-80.0,-27.0,15.0,-4.0,-10.0,-985.0,-181.0,3
44,16.0,-257.0,-87.0,-29.0,16.0,-5.0,-9.0,-988.0,-183.0,3
45,19.0,-257.0,-88.0,-29.0,15.0,-7.0,-5.0,-988.0,-181.0,3
46,18.0,-256.0,-86.0,-29.0,14.0,-4.0,-13.0,-989.0,-176.0,3
47,22.0,-260.0,-83.0,-31.0,13.0,-4.0,-6.0,-981.0,-185.0,3
48,18.0,-258.0,-88.0,-32.0,12.0,-6.0,-6.0,-981.0,-180.0,3
49,19.0,-258.0,-84.0,-32.0,12.0,-5.0,-7.0,-981.0,-180.0,3
50,20.0,-256.0,-85.0,-34.0,13.0,-6.0,-5.0,-983.0,-176.0,3
51,19.0,-258.0,-80.0,-34.0,13.0,-5.0,-8.0,-981.0,-185.0,3
52,23.0,-258.0,-82.0,-33.0,13.0,-6.0,-11.0,-984.0,-181.0,3
53,19.0,-257.0,-89.0,-33.0,14.0,-5.0,-3.0,-985.0,-175.0,3
54,21.0,-261.0,-79.0,-33.0,14.0,-6.0,-6.0,-985.0,-180.0,3
55,17.0,-259.0,-85.0,-33.0,16.0,-6.0,-7.0,-990.0,-177.0,3
56,20.0,-260.0,-85.0,-30.0,17.0,-7.0,-10.0,-991.0,-178.0,3
57,19.0,-258.0,-84.0,-31.0,17.0,-5.0,-7.0,-986.0,-182.0,3
58,17.0,-258.0,-84.0,-27.0,16.0,-7.0,-7.0,-988.0,-183.0,3
59,20.0,-260.0,-82.0,-28.0,16.0,-7.0,-8.0,-980.0,-176.0,3
60,22.0,-260.0,-84.0,-27.0,16.0,-7.0,-7.0,-987.0,-180.0,3
61,18.0,-258.0,-85.0,-26.0,15.0,-7.0,-4.0,-986.0,-183.0,3
62,18.0,-259.0,-88.0,-26.0,16.0,-5.0,-15.0,-985.0,-176.0,3
63,19.0,-257.0,-79.0,-26.0,15.0,-5.0,-13.0,-983.0,-173.0,3
64,17.0,-259.0,-86.0,-27.0,15.0,-6.0,-6.0,-981.0,-178.0,3
65,19.0,-256.0,-82.0,-27.0,15.0,-6.0,-9.0,-982.0,-180.0,3
66,20.0,-258.0,-84.0,-29.0,16.0,-5.0,-7.0,-984.0,-178.0,3
67,19.0,-257.0,-86.0,-30.0,14.0,-5.0,-8.0,-986.0,-176.0,3
68,17.0,-258.0,-78.0,-30.0,15.0,-4.0,-5.0,-983.0,-179.0,3
69,17.0,-258.0,-83.0,-32.0,16.0,-3.0,-4.0,-985.0,-178.0,3
70,18.0,-256.0,-83.0,-31.0,15.0,-4.0,-7.0,-981.0,-176.0,3
71,17.0,-258.0,-82.0,-32.0,15.0,-3.0,-4.0,-985.0,-176.0,3
72,19.0,-257.0,-87.0,-32.0,15.0,-5.0,-5.0,-981.0,-178.0,3
73,21.0,-259.0,-87.0,-32.0,14.0,-5.0,-6.0,-983.0,-175.0,3
74,18.0,-258.0,-83.0,-30.0,14.0,-5.0,-6.0,-983.0,-176.0,3
75,14.0,-258.0,-84.0,-32.0,14.0,-4.0,-6.0,-982.0,-181.0,3
76,17.0,-259.0,-82.0,-34.0,14.0,-4.0,-2.0,-982.0,-178.0,3
77,17.0,-256.0,-80.0,-35.0,16.0,-5.0,-6.0,-983.0,-181.0,3
78,19.0,-258.0,-80.0,-36.0,17.0,-5.0,-2.0,-990.0,-183.0,3
79,18.0,-258.0,-84.0,-39.0,17.0,-6.0,-2.0,-986.0,-177.0,3
80,18.0,-258.0,-85.0,-38.0,16.0,-8.0,-12.0,-984.0,-175.0,3
81,19.0,-256.0,-86.0,-40.0,16.0,-7.0,-8.0,-985.0,-176.0,3
82,19.0,-258.0,-86.0,-40.0,17.0,-6.0,-14.0,-988.0,-176.0,3
83,17.0,-257.0,-82.0,-39.0,17.0,-7.0,-9.0,-986.0,-177.0,3
84,18.0,-258.0,-83.0,-39.0,18.0,-5.0,-8.0,-981.0,-178.0,3
85,19.0,-257.0,-85.0,-39.0,18.0,-6.0,-8.0,-978.0,-180.0,3
86,20.0,-256.0,-82.0,-40.0,17.0,-7.0,-7.0,-985.0,-177.0,3
87,18.0,-257.0,-85.0,-39.0,18.0,-4.0,-9.0,-985.0,-176.0,3
88,21.0,-260.0,-82.0,-38.0,16.0,-6.0,-6.0,-987.0,-176.0,3
89,19.0,-258.0,-83.0,-38.0,15.0,-6.0,-6.0,-984.0,-173.0,3
90,16.0,-258.0,-84.0,-38.0,14.0,-5.0,-7.0,-984.0,-179.0,3
91,18.0,-257.0,-81.0,-36.0,15.0,-6.0,-4.0,-982.0,-177.0,3
92,18.0,-259.0,-84.0,-37.0,14.0,-4.0,-5.0,-988.0,-181.0,3
93,20.0,-258.0,-85.0,-37.0,13.0,-4.0,-7.0,-986.0,-174.0,3
94,17.0,-257.0,-88.0,-39.0,14.0,-5.0,-5.0,-988.0,-176.0,3
95,18.0,-258.0,-82.0,-38.0,14.0,-6.0,-1.0,-986.0,-175.0,3
96,19.0,-258.0,-84.0,-39.0,14.0,-5.0,-2.0,-984.0,-175.0,3
97,20.0,-257.0,-82.0,-40.0,13.0,-4.0,-9.0,-986.0,-175.0,3
98,18.0,-255.0,-85.0,-40.0,14.0,-5.0,-8.0,-982.0,-173.0,3
99,19.0,-258.0,-85.0,-40.0,15.0,-5.0,-6.0,-987.0,-171.0,3
100,21.0,-259.0,-82.0,-40.0,16.0,-4.0,-7.0,-984.0,-175.0,3
101,20.0,-257.0,-85.0,-40.0,16.0,-4.0,0.0,-989.0,-177.0,3
102,20.0,-260.0,-83.0,-39.0,15.0,-5.0,-6.0,-982.0,-174.0,3
103,21.0,-259.0,-83.0,-41.0,14.0,-4.0,-6.0,-983.0,-175.0,3
104,24.0,-257.0,-83.0,-41.0,16.0,-5.0,-5.0,-981.0,-172.0,3
105,19.0,-256.0,-84.0,-43.0,16.0,-5.0,-6.0,-980.0,-172.0,3
106,18.0,-258.0,-84.0,-45.0,15.0,-5.0,-7.0,-985.0,-174.0,3
107,20.0,-257.0,-82.0,-47.0,17.0,-5.0,-12.0,-985.0,-177.0,3
108,17.0,-256.0,-83.0,-48.0,18.0,-5.0,-5.0,-984.0,-173.0,3
109,19.0,-260.0,-83.0,-50.0,18.0,-5.0,-11.0,-987.0,-174.0,3
110,19.0,-259.0,-85.0,-51.0,18.0,-4.0,-5.0,-984.0,-178.0,3
111,19.0,-259.0,-87.0,-50.0,16.0,-4.0,-13.0,-988.0,-173.0,3
112,20.0,-258.0,-83.0,-47.0,14.0,-4.0,-6.0,-987.0,-170.0,3
113,22.0,-259.0,-82.0,-44.0,13.0,-4.0,-11.0,-989.0,-175.0,3
114,19.0,-258.0,-83.0,-42.0,13.0,-4.0,-4.0,-988.0,-177.0,3
115,20.0,-260.0,-83.0,-43.0,16.0,-4.0,-4.0,-982.0,-177.0,3
116,20.0,-260.0,-81.0,-41.0,17.0,-4.0,-3.0,-984.0,-178.0,3
117,18.0,-256.0,-85.0,-39.0,18.0,-3.0,-2.0,-988.0,-177.0,3
118,20.0,-258.0,-84.0,-38.0,20.0,-5.0,0.0,-986.0,-181.0,3
119,16.0,-256.0,-84.0,-40.0,19.0,-5.0,-5.0,-983.0,-173.0,3
120,20.0,-256.0,-90.0,-44.0,18.0,-4.0,-4.0,-981.0,-177.0,3
121,18.0,-256.0,-83.0,-47.0,16.0,-3.0,-8.0,-978.0,-169.0,3
122,20.0,-256.0,-78.0,-55.0,16.0,-3.0,-5.0,-982.0,-158.0,3
123,23.0,-259.0,-79.0,-61.0,17.0,-1.0,-8.0,-988.0,-152.0,3
124,17.0,-260.0,-81.0,-55.0,18.0,-1.0,-8.0,-988.0,-161.0,3
125,20.0,-262.0,-82.0,-47.0,20.0,-4.0,-6.0,-995.0,-169.0,3
126,18.0,-260.0,-83.0,-42.0,26.0,-7.0,-2.0,-985.0,-174.0,3
127,21.0,-259.0,-85.0,-41.0,31.0,-9.0,3.0,-981.0,-181.0,3
128,20.0,-256.0,-82.0,-47.0,32.0,-10.0,-6.0,-981.0,-180.0,3
129,17.0,-256.0,-90.0,-53.0,32.0,-8.0,-10.0,-981.0,-184.0,3
130,22.0,-254.0,-86.0,-63.0,32.0,-7.0,-8.0,-984.0,-184.0,3
131,21.0,-257.0,-84.0,-68.0,34.0,-6.0,-3.0,-981.0,-183.0,3
132,19.0,-258.0,-87.0,-68.0,33.0,-7.0,-5.0,-985.0,-182.0,3
133,18.0,-261.0,-82.0,-61.0,31.0,-7.0,-15.0,-991.0,-175.0,3
134,6.0,-255.0,-76.0,-55.0,25.0,-5.0,-9.0,-992.0,-170.0,3
135,18.0,-260.0,-79.0,-49.0,23.0,-4.0,-5.0,-991.0,-171.0,3
136,19.0,-259.0,-85.0,-42.0,22.0,-3.0,-6.0,-986.0,-174.0,3
137,17.0,-258.0,-82.0,-36.0,24.0,-3.0,-8.0,-992.0,-175.0,3
138,19.0,-259.0,-82.0,-34.0,24.0,-2.0,-4.0,-991.0,-174.0,3
139,23.0,-258.0,-83.0,-34.0,26.0,-2.0,-6.0,-988.0,-173.0,3
140,18.0,-257.0,-85.0,-37.0,27.0,-2.0,-6.0,-983.0,-176.0,3
141,19.0,-255.0,-84.0,-39.0,28.0,-1.0,-6.0,-981.0,-173.0,3
142,18.0,-256.0,-87.0,-42.0,28.0,-1.0,-6.0,-981.0,-174.0,3
143,20.0,-253.0,-84.0,-43.0,29.0,0.0,-4.0,-973.0,-177.0,3
144,20.0,-256.0,-82.0,-47.0,29.0,0.0,-5.0,-972.0,-178.0,3
145,25.0,-248.0,-95.0,-52.0,29.0,1.0,-1.0,-972.0,-172.0,3
146,18.0,-258.0,-84.0,-57.0,29.0,1.0,-1.0,-974.0,-175.0,3
147,21.0,-258.0,-84.0,-64.0,27.0,0.0,-3.0,-978.0,-178.0,3
148,22.0,-257.0,-82.0,-69.0,26.0,0.0,-6.0,-977.0,-177.0,3
149,21.0,-260.0,-83.0,-72.0,27.0,-1.0,-5.0,-985.0,-180.0,3
150,17.0,-258.0,-83.0,-74.0,28.0,1.0,-15.0,-986.0,-175.0,3
151,20.0,-257.0,-86.0,-73.0,27.0,0.0,-8.0,-992.0,-179.0,3
152,19.0,-257.0,-83.0,-71.0,28.0,-1.0,-6.0,-988.0,-175.0,3
153,17.0,-259.0,-88.0,-69.0,28.0,-3.0,-10.0,-990.0,-175.0,3
154,22.0,-260.0,-81.0,-67.0,28.0,-4.0,-6.0,-988.0,-179.0,3
155,18.0,-258.0,-83.0,-64.0,29.0,-4.0,-8.0,-986.0,-177.0,3
156,21.0,-259.0,-83.0,-62.0,30.0,-6.0,-11.0,-984.0,-176.0,3
157,17.0,-256.0,-84.0,-64.0,29.0,-7.0,-6.0,-992.0,-175.0,3
158,17.0,-257.0,-84.0,-64.0,30.0,-7.0,-5.0,-983.0,-182.0,3
159,20.0,-258.0,-86.0,-65.0,29.0,-6.0,-4.0,-983.0,-177.0,3
160,22.0,-259.0,-85.0,-66.0,29.0,-5.0,-6.0,-985.0,-175.0,3
161,20.0,-257.0,-80.0,-67.0,28.0,-4.0,-3.0,-988.0,-175.0,3
162,19.0,-258.0,-90.0,-65.0,26.0,-5.0,-8.0,-985.0,-178.0,3
163,22.0,-259.0,-86.0,-65.0,26.0,-3.0,-5.0,-984.0,-181.0,3
164,20.0,-259.0,-83.0,-64.0,23.0,-4.0,-7.0,-984.0,-180.0,3
165,19.0,-257.0,-86.0,-66.0,21.0,-3.0,-6.0,-982.0,-181.0,3
166,17.0,-257.0,-80.0,-68.0,19.0,-2.0,-11.0,-982.0,-176.0,3
167,20.0,-258.0,-85.0,-66.0,18.0,-1.0,-8.0,-981.0,-181.0,3
168,18.0,-257.0,-85.0,-69.0,16.0,-1.0,-2.0,-982.0,-178.0,3
169,22.0,-259.0,-87.0,-67.0,15.0,-1.0,-11.0,-981.0,-178.0,3
170,19.0,-257.0,-86.0,-69.0,15.0,-2.0,-9.0,-983.0,-179.0,3
171,17.0,-259.0,-83.0,-69.0,14.0,-1.0,-9.0,-984.0,-180.0,3
172,17.0,-258.0,-83.0,-69.0,15.0,-3.0,-4.0,-987.0,-179.0,3
173,20.0,-257.0,-85.0,-70.0,14.0,-2.0,-4.0,-987.0,-179.0,3
174,21.0,-258.0,-87.0,-72.0,16.0,-2.0,-2.0,-986.0,-180.0,3
175,21.0,-257.0,-83.0,-72.0,15.0,-2.0,-11.0,-984.0,-182.0,3
176,17.0,-256.0,-86.0,-70.0,16.0,-3.0,-6.0,-991.0,-185.0,3
177,20.0,-258.0,-87.0,-69.0,16.0,-3.0,-6.0,-978.0,-181.0,3
178,21.0,-259.0,-85.0,-68.0,15.0,-4.0,-6.0,-984.0,-183.0,3
179,21.0,-260.0,-87.0,-67.0,15.0,-4.0,-6.0,-986.0,-181.0,3
180,21.0,-257.0,-84.0,-67.0,14.0,-5.0,-8.0,-985.0,-174.0,3
181,21.0,-259.0,-81.0,-66.0,15.0,-6.0,-10.0,-984.0,-179.0,3
182,20.0,-256.0,-83.0,-63.0,15.0,-6.0,-8.0,-989.0,-183.0,3
183,22.0,-256.0,-84.0,-62.0,15.0,-7.0,-7.0,-986.0,-175.0,3
184,21.0,-257.0,-86.0,-61.0,16.0,-7.0,-4.0,-987.0,-179.0,3
185,19.0,-257.0,-86.0,-62.0,15.0,-6.0,-3.0,-989.0,-183.0,3
186,21.0,-258.0,-86.0,-61.0,15.0,-6.0,-2.0,-986.0,-179.0,3
187,21.0,-255.0,-87.0,-62.0,13.0,-5.0,-5.0,-981.0,-184.0,3
188,21.0,-258.0,-84.0,-63.0,12.0,-5.0,-2.0,-981.0,-176.0,3
189,22.0,-261.0,-84.0,-64.0,10.0,-3.0,-6.0,-979.0,-176.0,3
190,19.0,-258.0,-83.0,-68.0,10.0,-2.0,-8.0,-985.0,-178.0,3
191,19.0,-258.0,-80.0,-67.0,10.0,-2.0,-2.0,-986.0,-178.0,3
192,17.0,-258.0,-84.0,-70.0,10.0,-2.0,-2.0,-983.0,-174.0,3
193,18.0,-258.0,-81.0,-72.0,10.0,-3.0,-2.0,-986.0,-177.0,3
194,20.0,-256.0,-82.0,-70.0,11.0,-1.0,-5.0,-985.0,-183.0,3
195,19.0,-257.0,-85.0,-68.0,12.0,-3.0,-10.0,-983.0,-176.0,3
196,17.0,-257.0,-84.0,-67.0,14.0,-2.0,-3.0,-984.0,-179.0,3
197,22.0,-260.0,-89.0,-66.0,15.0,-3.0,-4.0,-984.0,-182.0,3
198,19.0,-261.0,-84.0,-65.0,16.0,-3.0,-5.0,-984.0,-184.0,3
199,20.0,-258.0,-85.0,-62.0,15.0,-1.0,-3.0,-989.0,-186.0,3
200,22.0,-258.0,-85.0,-60.0,16.0,-1.0,-16.0,-989.0,-182.0,3
201,21.0,-257.0,-85.0,-57.0,16.0,-2.0,-5.0,-984.0,-177.0,3
202,21.0,-257.0,-88.0,-58.0,16.0,-2.0,-9.0,-990.0,-182.0,3
203,15.0,-255.0,-87.0,-55.0,15.0,-4.0,-2.0,-984.0,-187.0,3
204,14.0,-257.0,-86.0,-56.0,16.0,-3.0,-2.0,-986.0,-185.0,3
205,20.0,-261.0,-89.0,-55.0,16.0,-3.0,-7.0,-981.0,-187.0,3
206,20.0,-259.0,-85.0,-55.0,16.0,-3.0,-2.0,-986.0,-185.0,3
207,20.0,-256.0,-85.0,-55.0,15.0,-3.0,-8.0,-983.0,-187.0,3
208,19.0,-259.0,-87.0,-53.0,17.0,-3.0,-3.0,-984.0,-181.0,3
209,23.0,-258.0,-86.0,-54.0,17.0,-3.0,-6.0,-985.0,-187.0,3
210,19.0,-258.0,-89.0,-52.0,17.0,-3.0,-6.0,-980.0,-181.0,3
211,20.0,-258.0,-83.0,-52.0,16.0,-2.0,-3.0,-982.0,-179.0,3
212,20.0,-262.0,-86.0,-51.0,17.0,-3.0,-7.0,-983.0,-183.0,3
213,18.0,-255.0,-93.0,-52.0,17.0,-2.0,-3.0,-977.0,-177.0,3
214,20.0,-259.0,-84.0,-52.0,18.0,-2.0,-20.0,-983.0,-184.0,3
215,19.0,-258.0,-88.0,-51.0,19.0,-2.0,-2.0,-984.0,-186.0,3
216,16.0,-258.0,-86.0,-51.0,19.0,-1.0,-8.0,-979.0,-180.0,3
217,17.0,-257.0,-82.0,-50.0,18.0,-3.0,-6.0,-984.0,-183.0,3
218,21.0,-256.0,-86.0,-50.0,17.0,-1.0,-10.0,-983.0,-185.0,3
219,18.0,-255.0,-86.0,-49.0,17.0,-2.0,-9.0,-986.0,-187.0,3
220,18.0,-257.0,-84.0,-47.0,15.0,-2.0,-1.0,-986.0,-184.0,3
221,19.0,-257.0,-83.0,-45.0,16.0,-2.0,-8.0,-984.0,-185.0,3
222,25.0,-258.0,-86.0,-45.0,17.0,-3.0,-9.0,-984.0,-182.0,3
223,19.0,-259.0,-86.0,-43.0,18.0,-4.0,-4.0,-985.0,-183.0,3
224,22.0,-259.0,-88.0,-40.0,19.0,-3.0,-1.0,-986.0,-185.0,3
225,19.0,-257.0,-88.0,-38.0,19.0,-3.0,-7.0,-979.0,-184.0,3
226,19.0,-256.0,-87.0,-41.0,18.0,-4.0,-3.0,-985.0,-187.0,3
227,20.0,-258.0,-88.0,-41.0,19.0,-3.0,-7.0,-983.0,-184.0,3
228,21.0,-256.0,-87.0,-43.0,19.0,-3.0,-2.0,-979.0,-183.0,3
229,19.0,-258.0,-86.0,-43.0,19.0,-5.0,-6.0,-983.0,-186.0,3
230,20.0,-260.0,-89.0,-43.0,21.0,-4.0,-5.0,-988.0,-188.0,3
231,19.0,-258.0,-83.0,-41.0,20.0,-3.0,-7.0,-983.0,-182.0,3
232,22.0,-259.0,-83.0,-40.0,20.0,-3.0,-5.0,-982.0,-189.0,3
233,16.0,-258.0,-83.0,-39.0,20.0,-4.0,-9.0,-985.0,-182.0,3
234,20.0,-260.0,-87.0,-38.0,19.0,-2.0,-5.0,-981.0,-185.0,3
235,18.0,-257.0,-84.0,-37.0,18.0,-4.0,-6.0,-986.0,-183.0,3
236,18.0,-259.0,-88.0,-37.0,17.0,-2.0,-13.0,-985.0,-181.0,3
237,18.0,-259.0,-83.0,-36.0,17.0,-2.0,-13.0,-983.0,-181.0,3
238,20.0,-258.0,-85.0,-34.0,18.0,-4.0,-8.0,-982.0,-182.0,3
239,18.0,-257.0,-84.0,-33.0,17.0,-4.0,-8.0,-983.0,-185.0,3
240,19.0,-257.0,-85.0,-33.0,16.0,-4.0,-14.0,-981.0,-187.0,3
241,17.0,-257.0,-85.0,-31.0,15.0,-4.0,-7.0,-985.0,-187.0,3
242,18.0,-257.0,-89.0,-33.0,14.0,-6.0,-8.0,-977.0,-180.0,3
243,19.0,-258.0,-86.0,-36.0,15.0,-6.0,-11.0,-981.0,-180.0,3
244,19.0,-256.0,-83.0,-36.0,16.0,-6.0,-6.0,-984.0,-179.0,3
245,19.0,-257.0,-83.0,-37.0,17.0,-5.0,-2.0,-983.0,-178.0,3
246,20.0,-260.0,-86.0,-37.0,17.0,-5.0,-7.0,-985.0,-182.0,3
247,19.0,-257.0,-82.0,-36.0,17.0,-5.0,-9.0,-984.0,-181.0,3
248,20.0,-261.0,-87.0,-38.0,17.0,-5.0,-6.0,-984.0,-184.0,3
249,18.0,-257.0,-88.0,-37.0,18.0,-7.0,-5.0,-980.0,-184.0,3
250,21.0,-257.0,-82.0,-39.0,19.0,-8.0,-8.0,-983.0,-184.0,3
251,19.0,-257.0,-84.0,-37.0,18.0,-7.0,-4.0,-980.0,-185.0,3
252,21.0,-259.0,-83.0,-40.0,17.0,-8.0,-6.0,-986.0,-185.0,3
253,18.0,-259.0,-84.0,-41.0,16.0,-7.0,-10.0,-988.0,-186.0,3
254,19.0,-257.0,-84.0,-45.0,15.0,-6.0,-11.0,-987.0,-185.0,3
255,19.0,-259.0,-84.0,-46.0,16.0,-9.0,-4.0,-985.0,-187.0,3
256,19.0,-258.0,-87.0,-48.0,15.0,-8.0,-6.0,-988.0,-189.0,3
257,20.0,-259.0,-84.0,-49.0,16.0,-6.0,-6.0,-989.0,-183.0,3
258,17.0,-260.0,-82.0,-47.0,15.0,-6.0,-8.0,-990.0,-186.0,3
259,16.0,-261.0,-85.0,-42.0,14.0,-5.0,-13.0,-997.0,-185.0,3
260,16.0,-259.0,-84.0,-38.0,11.0,-4.0,-12.0,-993.0,-185.0,3
261,19.0,-259.0,-84.0,-33.0,10.0,-4.0,-9.0,-990.0,-179.0,3
262,20.0,-259.0,-85.0,-27.0,10.0,-5.0,-10.0,-985.0,-180.0,3
263,20.0,-259.0,-83.0,-21.0,13.0,-4.0,-4.0,-981.0,-183.0,3
264,18.0,-258.0,-85.0,-18.0,16.0,-5.0,-12.0,-982.0,-178.0,3
265,21.0,-257.0,-85.0,-17.0,19.0,-7.0,-10.0,-975.0,-186.0,3
266,20.0,-257.0,-84.0,-18.0,20.0,-7.0,-1.0,-971.0,-184.0,3
267,17.0,-257.0,-85.0,-22.0,20.0,-8.0,-15.0,-977.0,-183.0,3
268,19.0,-256.0,-85.0,-27.0,19.0,-7.0,-7.0,-975.0,-183.0,3
269,16.0,-254.0,-87.0,-37.0,19.0,-7.0,-15.0,-975.0,-175.0,3
270,18.0,-256.0,-83.0,-47.0,16.0,-5.0,-11.0,-971.0,-173.0,3
271,19.0,-256.0,-82.0,-56.0,15.0,-5.0,-9.0,-980.0,-163.0,3
272,17.0,-258.0,-84.0,-57.0,18.0,-5.0,-16.0,-988.0,-168.0,3
273,20.0,-259.0,-89.0,-47.0,21.0,-7.0,-13.0,-987.0,-179.0,3
274,19.0,-258.0,-86.0,-40.0,25.0,-12.0,-4.0,-986.0,-187.0,3
275,21.0,-258.0,-87.0,-38.0,29.0,-14.0,-5.0,-982.0,-193.0,3
276,25.0,-248.0,-78.0,-39.0,31.0,-15.0,-2.0,-977.0,-191.0,3
277,18.0,-258.0,-91.0,-45.0,26.0,-13.0,-8.0,-975.0,-201.0,3
278,18.0,-254.0,-83.0,-53.0,20.0,-10.0,-3.0,-981.0,-195.0,3
279,19.0,-256.0,-83.0,-59.0,19.0,-8.0,-6.0,-976.0,-192.0,3
280,22.0,-259.0,-85.0,-59.0,17.0,-6.0,-5.0,-985.0,-188.0,3
281,22.0,-260.0,-86.0,-58.0,14.0,-6.0,-7.0,-985.0,-183.0,3
282,19.0,-257.0,-87.0,-51.0,11.0,-6.0,-7.0,-992.0,-180.0,3
283,19.0,-257.0,-82.0,-44.0,11.0,-6.0,-9.0,-988.0,-180.0,3
284,20.0,-257.0,-86.0,-40.0,14.0,-6.0,-5.0,-984.0,-177.0,3
285,20.0,-260.0,-83.0,-37.0,13.0,-8.0,-12.0,-986.0,-174.0,3
286,19.0,-256.0,-81.0,-34.0,15.0,-6.0,-7.0,-991.0,-176.0,3
287,19.0,-260.0,-88.0,-35.0,15.0,-6.0,-14.0,-985.0,-176.0,3
288,18.0,-256.0,-86.0,-36.0,15.0,-5.0,-10.0,-984.0,-177.0,3
289,21.0,-257.0,-80.0,-39.0,18.0,-6.0,-6.0,-980.0,-178.0,3
290,17.0,-259.0,-81.0,-39.0,19.0,-4.0,-6.0,-982.0,-184.0,3
291,19.0,-255.0,-87.0,-40.0,20.0,-5.0,-6.0,-980.0,-182.0,3
292,18.0,-257.0,-83.0,-40.0,20.0,-4.0,-6.0,-981.0,-179.0,3
293,19.0,-257.0,-84.0,-41.0,17.0,-5.0,-3.0,-987.0,-179.0,3
294,22.0,-259.0,-84.0,-42.0,17.0,-3.0,-2.0,-985.0,-179.0,3
295,19.0,-259.0,-83.0,-44.0,15.0,-4.0,-15.0,-986.0,-182.0,3
296,19.0,-258.0,-84.0,-44.0,16.0,-4.0,-16.0,-985.0,-183.0,3
297,18.0,-258.0,-86.0,-45.0,15.0,-4.0,-13.0,-987.0,-183.0,3
298,17.0,-259.0,-84.0,-43.0,14.0,-3.0,-12.0,-988.0,-187.0,3
299,15.0,-258.0,-86.0,-40.0,14.0,-3.0,-18.0,-987.0,-183.0,3
300,19.0,-258.0,-85.0,-38.0,13.0,-4.0,-16.0,-987.0,-180.0,3
301,17.0,-260.0,-87.0,-36.0,14.0,-5.0,-21.0,-986.0,-184.0,3
302,15.0,-258.0,-88.0,-33.0,14.0,-4.0,-16.0,-986.0,-180.0,3
303,16.0,-257.0,-84.0,-33.0,15.0,-6.0,-10.0,-985.0,-184.0,3
304,18.0,-257.0,-86.0,-32.0,14.0,-7.0,-19.0,-984.0,-179.0,3
305,20.0,-257.0,-89.0,-32.0,15.0,-8.0,-14.0,-984.0,-182.0,3
306,17.0,-257.0,-85.0,-34.0,15.0,-7.0,-4.0,-975.0,-176.0,3
307,19.0,-257.0,-87.0,-37.0,13.0,-6.0,-6.0,-986.0,-178.0,3
308,18.0,-257.0,-84.0,-37.0,14.0,-8.0,-5.0,-982.0,-177.0,3
309,18.0,-255.0,-84.0,-37.0,12.0,-8.0,-6.0,-979.0,-178.0,3
310,18.0,-257.0,-83.0,-40.0,10.0,-7.0,-6.0,-982.0,-178.0,3
311,17.0,-255.0,-82.0,-40.0,7.0,-5.0,-8.0,-985.0,-176.0,3
312,20.0,-258.0,-87.0,-41.0,6.0,-4.0,-15.0,-988.0,-182.0,3
313,19.0,-258.0,-88.0,-42.0,4.0,-2.0,-7.0,-982.0,-180.0,3
314,19.0,-257.0,-83.0,-43.0,3.0,-2.0,-13.0,-979.0,-182.0,3
315,18.0,-258.0,-84.0,-44.0,4.0,-3.0,-7.0,-981.0,-178.0,3
316,16.0,-258.0,-83.0,-47.0,6.0,-4.0,-14.0,-981.0,-181.0,3
317,18.0,-255.0,-88.0,-48.0,7.0,-3.0,-12.0,-979.0,-175.0,3
318,20.0,-260.0,-84.0,-50.0,7.0,-4.0,-8.0,-987.0,-179.0,3
319,17.0,-259.0,-84.0,-49.0,8.0,-4.0,-8.0,-979.0,-176.0,3
320,19.0,-259.0,-84.0,-51.0,11.0,-6.0,-8.0,-981.0,-177.0,3
321,16.0,-257.0,-83.0,-51.0,11.0,-7.0,-10.0,-989.0,-176.0,3
322,20.0,-257.0,-84.0,-51.0,12.0,-5.0,-4.0,-986.0,-181.0,3
323,21.0,-258.0,-81.0,-50.0,10.0,-5.0,-13.0,-987.0,-180.0,3
324,19.0,-260.0,-86.0,-48.0,10.0,-6.0,-7.0,-989.0,-176.0,3
325,19.0,-256.0,-87.0,-47.0,9.0,-5.0,-7.0,-984.0,-182.0,3
326,18.0,-257.0,-84.0,-45.0,9.0,-5.0,-7.0,-983.0,-182.0,3
327,20.0,-256.0,-87.0,-43.0,9.0,-5.0,-5.0,-984.0,-180.0,3
328,18.0,-255.0,-81.0,-42.0,9.0,-5.0,-4.0,-982.0,-182.0,3
329,16.0,-260.0,-87.0,-41.0,10.0,-5.0,-6.0,-986.0,-183.0,3
330,18.0,-258.0,-85.0,-41.0,9.0,-6.0,-9.0,-985.0,-182.0,3
331,20.0,-259.0,-82.0,-40.0,8.0,-6.0,-6.0,-987.0,-180.0,3
332,20.0,-257.0,-85.0,-39.0,10.0,-5.0,-11.0,-985.0,-180.0,3
333,19.0,-258.0,-83.0,-40.0,10.0,-6.0,-5.0,-983.0,-179.0,3
334,16.0,-261.0,-87.0,-38.0,10.0,-5.0,-10.0,-985.0,-180.0,3
335,19.0,-261.0,-86.0,-38.0,10.0,-4.0,-8.0,-983.0,-185.0,3
336,16.0,-258.0,-85.0,-38.0,10.0,-3.0,-9.0,-989.0,-177.0,3
337,16.0,-256.0,-82.0,-38.0,10.0,-3.0,-10.0,-989.0,-174.0,3
338,20.0,-259.0,-83.0,-40.0,9.0,-3.0,-5.0,-984.0,-178.0,3
339,19.0,-257.0,-85.0,-42.0,10.0,-4.0,-4.0,-979.0,-180.0,3
340,20.0,-259.0,-87.0,-44.0,9.0,-5.0,-5.0,-988.0,-179.0,3
341,18.0,-255.0,-85.0,-43.0,10.0,-5.0,-4.0,-985.0,-180.0,3
342,18.0,-258.0,-87.0,-43.0,12.0,-6.0,-8.0,-986.0,-182.0,3
343,21.0,-259.0,-84.0,-43.0,12.0,-4.0,-4.0,-986.0,-178.0,3
344,21.0,-258.0,-84.0,-40.0,12.0,-4.0,-4.0,-986.0,-179.0,3
345,20.0,-258.0,-87.0,-39.0,14.0,-5.0,-1.0,-984.0,-180.0,3
346,16.0,-260.0,-82.0,-39.0,15.0,-6.0,-3.0,-986.0,-181.0,3
347,17.0,-258.0,-82.0,-36.0,17.0,-6.0,-5.0,-987.0,-179.0,3
348,21.0,-261.0,-87.0,-34.0,19.0,-6.0,-5.0,-988.0,-181.0,3
349,19.0,-259.0,-82.0,-36.0,20.0,-4.0,-3.0,-984.0,-181.0,3
350,18.0,-257.0,-85.0,-35.0,21.0,-6.0,-3.0,-988.0,-178.0,3
351,19.0,-257.0,-84.0,-36.0,21.0,-5.0,-4.0,-984.0,-181.0,3
352,22.0,-258.0,-86.0,-35.0,21.0,-5.0,-3.0,-984.0,-177.0,3
353,21.0,-259.0,-86.0,-36.0,20.0,-4.0,2.0,-980.0,-176.0,3
354,19.0,-257.0,-87.0,-39.0,20.0,-4.0,-5.0,-984.0,-177.0,3
355,19.0,-256.0,-82.0,-39.0,21.0,-5.0,-6.0,-984.0,-178.0,3
356,23.0,-259.0,-82.0,-40.0,21.0,-4.0,-5.0,-982.0,-177.0,3
357,16.0,-256.0,-83.0,-40.0,20.0,0.0,-7.0,-986.0,-175.0,3
358,18.0,-259.0,-86.0,-41.0,19.0,-3.0,-9.0,-987.0,-177.0,3
359,18.0,-258.0,-86.0,-42.0,20.0,-1.0,-4.0,-977.0,-177.0,3
360,18.0,-257.0,-87.0,-40.0,21.0,-2.0,-6.0,-985.0,-176.0,3
361,18.0,-256.0,-84.0,-43.0,21.0,-1.0,-5.0,-983.0,-182.0,3
362,18.0,-256.0,-86.0,-43.0,20.0,-1.0,-6.0,-980.0,-176.0,3
363,21.0,-259.0,-87.0,-43.0,19.0,-4.0,-13.0,-982.0,-179.0,3
364,18.0,-257.0,-86.0,-42.0,21.0,-3.0,-9.0,-984.0,-180.0,3
365,17.0,-257.0,-82.0,-43.0,22.0,-4.0,-9.0,-982.0,-177.0,3
366,17.0,-257.0,-79.0,-42.0,22.0,-5.0,-5.0,-983.0,-180.0,3
367,16.0,-256.0,-89.0,-45.0,24.0,-4.0,-9.0,-986.0,-174.0,3
368,18.0,-258.0,-82.0,-46.0,23.0,-4.0,-12.0,-984.0,-181.0,3
369,20.0,-259.0,-84.0,-44.0,23.0,-4.0,-5.0,-985.0,-184.0,3
370,18.0,-257.0,-84.0,-45.0,24.0,-5.0,-7.0,-987.0,-179.0,3
371,20.0,-258.0,-84.0,-45.0,24.0,-4.0,-8.0,-985.0,-178.0,3
372,21.0,-258.0,-83.0,-43.0,24.0,-5.0,-2.0,-985.0,-178.0,3
373,19.0,-259.0,-88.0,-42.0,23.0,-3.0,-12.0,-986.0,-176.0,3
374,19.0,-258.0,-87.0,-40.0,22.0,-4.0,-4.0,-985.0,-182.0,3
375,19.0,-257.0,-82.0,-40.0,21.0,-4.0,-9.0,-985.0,-180.0,3
376,19.0,-258.0,-85.0,-39.0,21.0,-4.0,-8.0,-983.0,-179.0,3
377,19.0,-260.0,-82.0,-41.0,22.0,-6.0,-4.0,-982.0,-180.0,3
378,17.0,-257.0,-86.0,-41.0,21.0,-5.0,-11.0,-988.0,-180.0,3
379,19.0,-258.0,-86.0,-41.0,20.0,-4.0,-12.0,-987.0,-181.0,3
380,19.0,-258.0,-85.0,-42.0,21.0,-5.0,-6.0,-983.0,-183.0,3
381,16.0,-257.0,-85.0,-42.0,20.0,-4.0,-2.0,-986.0,-175.0,3
382,19.0,-257.0,-86.0,-43.0,19.0,-5.0,-6.0,-983.0,-176.0,3
383,17.0,-257.0,-83.0,-43.0,21.0,-5.0,-6.0,-981.0,-176.0,3
384,19.0,-258.0,-83.0,-42.0,19.0,-5.0,-8.0,-988.0,-180.0,3
385,18.0,-257.0,-83.0,-42.0,18.0,-5.0,-3.0,-985.0,-178.0,3
386,22.0,-257.0,-84.0,-43.0,19.0,-4.0,-16.0,-983.0,-179.0,3
387,19.0,-257.0,-86.0,-43.0,19.0,-6.0,-4.0,-983.0,-173.0,3
388,17.0,-256.0,-86.0,-42.0,19.0,-5.0,-3.0,-988.0,-178.0,3
389,17.0,-256.0,-82.0,-44.0,20.0,-5.0,-8.0,-984.0,-175.0,3
390,18.0,-258.0,-84.0,-44.0,20.0,-6.0,-11.0,-981.0,-174.0,3
391,19.0,-257.0,-82.0,-43.0,20.0,-7.0,-8.0,-983.0,-175.0,3
392,18.0,-257.0,-83.0,-44.0,19.0,-5.0,-10.0,-982.0,-175.0,3
393,18.0,-258.0,-83.0,-42.0,20.0,-4.0,-7.0,-989.0,-173.0,3
394,20.0,-258.0,-80.0,-44.0,20.0,-2.0,-4.0,-986.0,-178.0,3
395,19.0,-258.0,-82.0,-45.0,21.0,-4.0,-8.0,-984.0,-179.0,3
396,17.0,-255.0,-86.0,-44.0,21.0,-5.0,-7.0,-982.0,-175.0,3
397,21.0,-256.0,-83.0,-45.0,23.0,-4.0,-6.0,-987.0,-176.0,3
398,19.0,-257.0,-80.0,-45.0,24.0,-2.0,-6.0,-983.0,-178.0,3
399,19.0,-257.0,-87.0,-44.0,24.0,-3.0,-7.0,-983.0,-177.0,3
400,20.0,-260.0,-82.0,-44.0,24.0,-2.0,-8.0,-982.0,-178.0,3
401,19.0,-261.0,-85.0,-47.0,23.0,-1.0,-10.0,-992.0,-179.0,3
402,18.0,-258.0,-87.0,-43.0,20.0,-2.0,-11.0,-989.0,-179.0,3
403,17.0,-259.0,-82.0,-39.0,18.0,-1.0,-11.0,-989.0,-186.0,3
404,17.0,-257.0,-88.0,-38.0,16.0,-1.0,-17.0,-984.0,-179.0,3
405,18.0,-262.0,-86.0,-38.0,17.0,0.0,-4.0,-987.0,-180.0,3
406,21.0,-257.0,-85.0,-36.0,20.0,-1.0,-6.0,-982.0,-182.0,3
407,15.0,-252.0,-86.0,-34.0,21.0,-2.0,-6.0,-986.0,-178.0,3
408,17.0,-260.0,-87.0,-35.0,23.0,-2.0,-13.0,-983.0,-179.0,3
409,17.0,-256.0,-84.0,-33.0,23.0,-1.0,-4.0,-984.0,-178.0,3
410,18.0,-258.0,-89.0,-34.0,23.0,-2.0,-6.0,-984.0,-179.0,3
411,20.0,-257.0,-86.0,-36.0,23.0,-1.0,-5.0,-981.0,-179.0,3
412,20.0,-255.0,-81.0,-41.0,21.0,-2.0,-6.0,-982.0,-174.0,3
413,17.0,-255.0,-80.0,-45.0,20.0,-2.0,-11.0,-978.0,-170.0,3
414,16.0,-257.0,-82.0,-53.0,22.0,-1.0,-12.0,-982.0,-166.0,3
415,17.0,-262.0,-82.0,-55.0,20.0,-1.0,-7.0,-985.0,-164.0,3
416,18.0,-260.0,-82.0,-48.0,21.0,-2.0,-9.0,-992.0,-174.0,3
417,20.0,-271.0,-74.0,-38.0,29.0,-4.0,-8.0,-990.0,-178.0,3
418,17.0,-259.0,-87.0,-34.0,36.0,-8.0,-5.0,-983.0,-188.0,3
419,21.0,-256.0,-88.0,-37.0,40.0,-10.0,-4.0,-978.0,-197.0,3
420,21.0,-256.0,-89.0,-42.0,38.0,-9.0,-7.0,-971.0,-192.0,3
421,22.0,-257.0,-91.0,-50.0,33.0,-7.0,-5.0,-984.0,-195.0,3
422,23.0,-258.0,-85.0,-58.0,28.0,-4.0,-1.0,-978.0,-194.0,3
423,17.0,-257.0,-84.0,-62.0,26.0,-3.0,-2.0,-983.0,-184.0,3
424,21.0,-260.0,-80.0,-61.0,24.0,-2.0,-5.0,-991.0,-180.0,3
425,19.0,-260.0,-86.0,-55.0,21.0,-1.0,-8.0,-995.0,-177.0,3
426,20.0,-260.0,-81.0,-47.0,19.0,0.0,-6.0,-996.0,-171.0,3
427,18.0,-262.0,-80.0,-39.0,19.0,-2.0,-13.0,-990.0,-174.0,3
428,17.0,-258.0,-76.0,-34.0,20.0,0.0,-5.0,-994.0,-169.0,3
429,19.0,-261.0,-84.0,-27.0,20.0,1.0,-16.0,-983.0,-174.0,3
430,16.0,-259.0,-86.0,-29.0,19.0,3.0,-10.0,-988.0,-173.0,3
431,16.0,-258.0,-85.0,-30.0,19.0,3.0,-12.0,-987.0,-175.0,3
432,15.0,-257.0,-81.0,-33.0,21.0,3.0,-18.0,-985.0,-181.0,3
433,17.0,-257.0,-79.0,-35.0,20.0,2.0,-15.0,-982.0,-176.0,3
434,17.0,-259.0,-85.0,-37.0,22.0,2.0,-12.0,-977.0,-179.0,3
435,21.0,-257.0,-85.0,-40.0,24.0,1.0,-10.0,-975.0,-174.0,3
436,18.0,-254.0,-87.0,-45.0,24.0,0.0,-12.0,-981.0,-180.0,3
437,19.0,-258.0,-84.0,-47.0,23.0,0.0,-6.0,-977.0,-174.0,3
438,19.0,-259.0,-83.0,-50.0,22.0,-1.0,-8.0,-985.0,-170.0,3
439,19.0,-258.0,-84.0,-50.0,22.0,0.0,-12.0,-985.0,-173.0,3
440,16.0,-259.0,-85.0,-48.0,22.0,-2.0,-13.0,-985.0,-179.0,3
441,20.0,-260.0,-85.0,-45.0,23.0,-2.0,-7.0,-993.0,-182.0,3
442,17.0,-261.0,-85.0,-42.0,24.0,-1.0,-5.0,-984.0,-178.0,3
443,18.0,-262.0,-83.0,-39.0,24.0,-3.0,-18.0,-986.0,-178.0,3
444,16.0,-260.0,-82.0,-37.0,26.0,-3.0,-19.0,-988.0,-178.0,3
445,17.0,-257.0,-88.0,-35.0,25.0,-3.0,-16.0,-985.0,-178.0,3
446,19.0,-259.0,-84.0,-35.0,24.0,-3.0,-20.0,-983.0,-175.0,3
447,17.0,-257.0,-85.0,-35.0,25.0,-4.0,-15.0,-984.0,-176.0,3
448,14.0,-257.0,-87.0,-37.0,23.0,-4.0,-14.0,-985.0,-174.0,3
449,18.0,-256.0,-80.0,-37.0,22.0,-5.0,-19.0,-984.0,-175.0,3
450,20.0,-260.0,-82.0,-38.0,21.0,-5.0,-15.0,-984.0,-176.0,3
451,18.0,-256.0,-84.0,-39.0,21.0,-4.0,-10.0,-981.0,-176.0,3
452,20.0,-260.0,-84.0,-41.0,19.0,-4.0,-12.0,-981.0,-176.0,3
453,16.0,-255.0,-84.0,-41.0,18.0,-3.0,-15.0,-985.0,-176.0,3
454,17.0,-257.0,-82.0,-42.0,17.0,-3.0,-12.0,-982.0,-176.0,3
455,21.0,-258.0,-86.0,-41.0,15.0,-3.0,-7.0,-981.0,-176.0,3
456,17.0,-256.0,-84.0,-41.0,15.0,-3.0,-11.0,-981.0,-175.0,3
457,18.0,-257.0,-81.0,-42.0,15.0,-3.0,-15.0,-981.0,-174.0,3
458,15.0,-259.0,-83.0,-43.0,16.0,-3.0,-7.0,-980.0,-177.0,3
459,19.0,-256.0,-86.0,-44.0,17.0,-4.0,-10.0,-981.0,-176.0,3
460,17.0,-256.0,-86.0,-46.0,17.0,-4.0,-12.0,-980.0,-176.0,3
461,16.0,-257.0,-82.0,-48.0,17.0,-6.0,-7.0,-985.0,-177.0,3
462,19.0,-258.0,-79.0,-50.0,18.0,-6.0,-6.0,-980.0,-172.0,3
463,21.0,-258.0,-85.0,-50.0,19.0,-6.0,-10.0,-989.0,-179.0,3
464,17.0,-258.0,-84.0,-51.0,19.0,-5.0,-9.0,-983.0,-175.0,3
465,18.0,-259.0,-84.0,-52.0,19.0,-4.0,-12.0,-985.0,-177.0,3
466,18.0,-260.0,-82.0,-52.0,19.0,-5.0,-9.0,-986.0,-178.0,3
467,21.0,-258.0,-82.0,-48.0,18.0,-5.0,-9.0,-987.0,-184.0,3
468,19.0,-257.0,-84.0,-49.0,17.0,-6.0,-9.0,-981.0,-183.0,3
469,16.0,-257.0,-88.0,-48.0,17.0,-4.0,-7.0,-986.0,-184.0,3
470,17.0,-255.0,-83.0,-46.0,17.0,-4.0,-5.0,-989.0,-182.0,3
471,20.0,-259.0,-84.0,-45.0,17.0,-3.0,-4.0,-996.0,-181.0,3
472,21.0,-259.0,-85.0,-44.0,17.0,-5.0,-2.0,-983.0,-176.0,3
473,21.0,-259.0,-83.0,-43.0,17.0,-3.0,-8.0,-989.0,-179.0,3
474,19.0,-258.0,-87.0,-42.0,19.0,-5.0,-6.0,-983.0,-182.0,3
475,21.0,-258.0,-85.0,-42.0,21.0,-6.0,-7.0,-986.0,-184.0,3
476,18.0,-258.0,-85.0,-42.0,23.0,-6.0,-11.0,-981.0,-178.0,3
477,20.0,-259.0,-85.0,-41.0,26.0,-6.0,-5.0,-980.0,-177.0,3
478,18.0,-256.0,-80.0,-42.0,26.0,-7.0,-2.0,-981.0,-179.0,3
479,19.0,-258.0,-83.0,-43.0,28.0,-6.0,-2.0,-986.0,-175.0,3
480,23.0,-258.0,-84.0,-42.0,32.0,-6.0,3.0,-990.0,-178.0,3
481,21.0,-258.0,-85.0,-38.0,37.0,-7.0,4.0,-987.0,-176.0,3
482,25.0,-260.0,-83.0,-36.0,44.0,-8.0,9.0,-993.0,-181.0,3
483,27.0,-259.0,-83.0,-32.0,50.0,-8.0,18.0,-989.0,-177.0,3
484,26.0,-259.0,-84.0,-27.0,56.0,-8.0,16.0,-992.0,-176.0,3
485,33.0,-262.0,-83.0,-21.0,62.0,-8.0,22.0,-993.0,-179.0,3
486,30.0,-258.0,-81.0,-15.0,68.0,-8.0,19.0,-992.0,-180.0,3
487,27.0,-258.0,-86.0,-12.0,77.0,-5.0,24.0,-992.0,-180.0,3
488,29.0,-259.0,-87.0,-11.0,85.0,-4.0,23.0,-992.0,-183.0,3
489,30.0,-262.0,-84.0,-12.0,96.0,-2.0,31.0,-983.0,-189.0,3
490,30.0,-256.0,-87.0,-14.0,111.0,1.0,34.0,-984.0,-199.0,3
491,33.0,-257.0,-92.0,-19.0,131.0,5.0,35.0,-983.0,-212.0,3
492,33.0,-255.0,-99.0,-28.0,156.0,10.0,42.0,-981.0,-228.0,3
493,33.0,-255.0,-102.0,-39.0,184.0,16.0,50.0,-981.0,-246.0,3
494,37.0,-260.0,-105.0,-57.0,213.0,21.0,45.0,-981.0,-262.0,3
495,38.0,-257.0,-110.0,-77.0,240.0,29.0,55.0,-987.0,-275.0,3
496,37.0,-259.0,-112.0,-94.0,264.0,36.0,60.0,-994.0,-289.0,3
497,39.0,-265.0,-113.0,-106.0,289.0,46.0,70.0,-998.0,-292.0,3
498,36.0,-263.0,-111.0,-116.0,309.0,58.0,70.0,-1007.0,-301.0,3
499,39.0,-267.0,-119.0,-116.0,323.0,72.0,68.0,-1021.0,-306.0,3
500,36.0,-273.0,-116.0,-109.0,332.0,90.0,61.0,-1027.0,-306.0,3
501,37.0,-274.0,-116.0,-94.0,333.0,109.0,57.0,-1041.0,-301.0,3
502,30.0,-274.0,-114.0,-71.0,330.0,131.0,41.0,-1046.0,-295.0,3
503,23.0,-272.0,-112.0,-43.0,323.0,151.0,20.0,-1033.0,-296.0,3
504,17.0,-272.0,-112.0,-14.0,309.0,174.0,-4.0,-1023.0,-287.0,3
505,6.0,-264.0,-113.0,16.0,289.0,201.0,-46.0,-1004.0,-300.0,3
506,3.0,-256.0,-114.0,36.0,266.0,229.0,-66.0,-983.0,-307.0,3
507,0.0,-253.0,-117.0,48.0,243.0,253.0,-93.0,-961.0,-315.0,3
508,-5.0,-249.0,-123.0,39.0,225.0,274.0,-109.0,-939.0,-322.0,3
509,-4.0,-238.0,-125.0,19.0,208.0,287.0,-115.0,-908.0,-333.0,3
510,-7.0,-231.0,-127.0,-15.0,202.0,292.0,-115.0,-877.0,-337.0,3
511,-5.0,-226.0,-126.0,-61.0,197.0,283.0,-114.0,-855.0,-349.0,3
512,-5.0,-219.0,-127.0,-118.0,192.0,260.0,-99.0,-829.0,-343.0,3
513,2.0,-214.0,-124.0,-176.0,183.0,228.0,-71.0,-820.0,-326.0,3
514,10.0,-214.0,-115.0,-230.0,175.0,186.0,-42.0,-811.0,-302.0,3
515,21.0,-215.0,-106.0,-274.0,176.0,139.0,-5.0,-813.0,-265.0,3
516,31.0,-213.0,-101.0,-303.0,191.0,86.0,40.0,-809.0,-233.0,3
517,49.0,-210.0,-93.0,-321.0,225.0,35.0,85.0,-804.0,-208.0,3
518,60.0,-212.0,-82.0,-328.0,278.0,-15.0,138.0,-799.0,-183.0,3
519,72.0,-212.0,-82.0,-330.0,353.0,-58.0,185.0,-803.0,-165.0,3
520,82.0,-217.0,-83.0,-330.0,445.0,-90.0,222.0,-812.0,-159.0,3
521,91.0,-218.0,-79.0,-333.0,547.0,-108.0,258.0,-820.0,-148.0,3
522,101.0,-226.0,-75.0,-337.0,651.0,-104.0,295.0,-848.0,-143.0,3
523,111.0,-230.0,-74.0,-341.0,756.0,-87.0,336.0,-872.0,-133.0,3
524,127.0,-238.0,-70.0,-343.0,865.0,-58.0,386.0,-909.0,-126.0,3
525,142.0,-245.0,-72.0,-343.0,984.0,-17.0,434.0,-934.0,-121.0,3
526,154.0,-248.0,-67.0,-337.0,1113.0,28.0,489.0,-948.0,-117.0,3
527,169.0,-253.0,-74.0,-328.0,1250.0,75.0,544.0,-957.0,-125.0,3
528,180.0,-253.0,-73.0,-316.0,1400.0,127.0,580.0,-951.0,-139.0,3
529,192.0,-248.0,-78.0,-298.0,1558.0,188.0,624.0,-936.0,-173.0,3
530,198.0,-239.0,-91.0,-280.0,1720.0,251.0,654.0,-910.0,-197.0,3
531,206.0,-227.0,-99.0,-267.0,1888.0,312.0,678.0,-863.0,-244.0,3
532,209.0,-218.0,-113.0,-255.0,2068.0,370.0,685.0,-805.0,-273.0,3
533,201.0,-198.0,-124.0,-241.0,2252.0,417.0,669.0,-744.0,-319.0,3
534,191.0,-179.0,-131.0,-232.0,2429.0,461.0,626.0,-677.0,-374.0,3
535,175.0,-164.0,-141.0,-238.0,2582.0,499.0,568.0,-600.0,-415.0,3
536,151.0,-148.0,-148.0,-269.0,2695.0,532.0,489.0,-539.0,-452.0,3
537,125.0,-135.0,-159.0,-318.0,2757.0,566.0,366.0,-489.0,-458.0,3
538,89.0,-123.0,-158.0,-380.0,2768.0,607.0,249.0,-456.0,-454.0,3
539,61.0,-117.0,-152.0,-438.0,2736.0,639.0,140.0,-419.0,-444.0,3
540,31.0,-110.0,-150.0,-485.0,2686.0,667.0,26.0,-406.0,-426.0,3
541,3.0,-110.0,-148.0,-521.0,2645.0,691.0,-91.0,-408.0,-415.0,3
542,-24.0,-116.0,-143.0,-550.0,2638.0,702.0,-198.0,-437.0,-419.0,3
543,-55.0,-136.0,-150.0,-571.0,2657.0,708.0,-292.0,-515.0,-444.0,3
544,-68.0,-176.0,-155.0,-607.0,2693.0,720.0,-356.0,-627.0,-456.0,3
545,-81.0,-207.0,-153.0,-660.0,2734.0,731.0,-396.0,-767.0,-452.0,3
546,-89.0,-244.0,-147.0,-711.0,2791.0,754.0,-428.0,-912.0,-439.0,3
547,-92.0,-293.0,-144.0,-744.0,2853.0,811.0,-441.0,-1090.0,-418.0,3
548,-116.0,-327.0,-145.0,-781.0,2872.0,854.0,-510.0,-1241.0,-422.0,3
549,-126.0,-362.0,-151.0,-845.0,2824.0,907.0,-534.0,-1385.0,-444.0,3
550,-134.0,-385.0,-157.0,-956.0,2694.0,963.0,-564.0,-1480.0,-468.0,3
551,-144.0,-394.0,-146.0,-1118.0,2485.0,985.0,-603.0,-1532.0,-452.0,3
552,-142.0,-403.0,-127.0,-1277.0,2197.0,987.0,-601.0,-1542.0,-373.0,3
553,-136.0,-404.0,-107.0,-1355.0,1855.0,992.0,-559.0,-1541.0,-291.0,3
554,-110.0,-408.0,-83.0,-1317.0,1504.0,987.0,-491.0,-1537.0,-205.0,3
555,-79.0,-408.0,-70.0,-1174.0,1183.0,960.0,-393.0,-1525.0,-154.0,3
556,-45.0,-403.0,-65.0,-974.0,928.0,924.0,-276.0,-1519.0,-112.0,3
557,-16.0,-393.0,-60.0,-776.0,762.0,865.0,-170.0,-1500.0,-89.0,3
558,3.0,-384.0,-56.0,-614.0,684.0,770.0,-83.0,-1468.0,-70.0,3
559,22.0,-364.0,-61.0,-485.0,675.0,660.0,-13.0,-1421.0,-65.0,3
560,45.0,-359.0,-60.0,-357.0,711.0,557.0,61.0,-1366.0,-76.0,3
561,66.0,-341.0,-64.0,-224.0,779.0,466.0,144.0,-1302.0,-94.0,3
562,83.0,-318.0,-68.0,-87.0,874.0,382.0,208.0,-1221.0,-115.0,3
563,96.0,-296.0,-75.0,30.0,992.0,306.0,262.0,-1140.0,-127.0,3
564,113.0,-278.0,-76.0,120.0,1124.0,239.0,304.0,-1068.0,-143.0,3
565,121.0,-258.0,-83.0,189.0,1259.0,183.0,352.0,-993.0,-160.0,3
566,129.0,-237.0,-84.0,230.0,1393.0,135.0,393.0,-923.0,-179.0,3
567,135.0,-218.0,-87.0,232.0,1524.0,102.0,412.0,-847.0,-193.0,3
568,137.0,-200.0,-89.0,202.0,1650.0,80.0,427.0,-768.0,-192.0,3
569,135.0,-187.0,-86.0,145.0,1755.0,68.0,426.0,-721.0,-182.0,3
570,128.0,-179.0,-86.0,69.0,1835.0,68.0,402.0,-686.0,-177.0,3
571,120.0,-180.0,-84.0,-27.0,1895.0,74.0,374.0,-683.0,-168.0,3
572,110.0,-180.0,-83.0,-138.0,1942.0,85.0,330.0,-698.0,-164.0,3
573,93.0,-191.0,-80.0,-259.0,1976.0,107.0,281.0,-733.0,-156.0,3
574,79.0,-207.0,-76.0,-379.0,1992.0,149.0,229.0,-788.0,-139.0,3
575,63.0,-222.0,-75.0,-491.0,1987.0,205.0,174.0,-849.0,-128.0,3
576,51.0,-239.0,-73.0,-576.0,1966.0,265.0,124.0,-906.0,-121.0,3
577,38.0,-253.0,-69.0,-632.0,1931.0,327.0,69.0,-952.0,-122.0,3
578,24.0,-263.0,-68.0,-655.0,1889.0,384.0,21.0,-988.0,-132.0,3
579,9.0,-266.0,-73.0,-650.0,1844.0,434.0,-29.0,-1007.0,-141.0,3
580,2.0,-265.0,-80.0,-622.0,1798.0,480.0,-64.0,-1006.0,-167.0,3
581,-4.0,-259.0,-87.0,-585.0,1756.0,519.0,-103.0,-992.0,-180.0,3
582,-13.0,-249.0,-87.0,-546.0,1717.0,545.0,-123.0,-957.0,-197.0,3
583,-15.0,-240.0,-92.0,-513.0,1686.0,565.0,-136.0,-925.0,-223.0,3
584,-14.0,-232.0,-100.0,-492.0,1655.0,575.0,-130.0,-885.0,-232.0,3
585,-2.0,-225.0,-98.0,-485.0,1629.0,579.0,-105.0,-850.0,-235.0,3
586,0.0,-221.0,-99.0,-487.0,1608.0,577.0,-83.0,-827.0,-243.0,3
587,7.0,-213.0,-100.0,-492.0,1591.0,569.0,-53.0,-811.0,-247.0,3
588,18.0,-211.0,-101.0,-499.0,1581.0,560.0,-23.0,-799.0,-241.0,3
589,26.0,-210.0,-101.0,-510.0,1577.0,550.0,18.0,-796.0,-246.0,3
590,35.0,-213.0,-103.0,-525.0,1577.0,546.0,52.0,-810.0,-251.0,3
591,45.0,-221.0,-106.0,-547.0,1579.0,544.0,67.0,-824.0,-249.0,3
592,47.0,-226.0,-104.0,-573.0,1591.0,549.0,85.0,-851.0,-254.0,3
593,51.0,-234.0,-97.0,-593.0,1613.0,557.0,96.0,-875.0,-237.0,3
594,52.0,-238.0,-99.0,-595.0,1644.0,566.0,101.0,-901.0,-223.0,3
595,52.0,-245.0,-94.0,-577.0,1680.0,579.0,117.0,-925.0,-218.0,3
596,51.0,-247.0,-93.0,-549.0,1714.0,586.0,123.0,-931.0,-203.0,3
597,56.0,-249.0,-90.0,-509.0,1743.0,593.0,124.0,-941.0,-190.0,3
598,53.0,-250.0,-83.0,-464.0,1763.0,596.0,126.0,-942.0,-181.0,3
599,55.0,-253.0,-80.0,-415.0,1774.0,600.0,124.0,-944.0,-173.0,3
600,50.0,-243.0,-83.0,-367.0,1777.0,601.0,126.0,-943.0,-165.0,3
601,53.0,-247.0,-83.0,-326.0,1771.0,601.0,120.0,-940.0,-163.0,3
602,53.0,-245.0,-85.0,-288.0,1762.0,602.0,119.0,-936.0,-171.0,3
603,47.0,-245.0,-88.0,-261.0,1750.0,603.0,119.0,-928.0,-180.0,3
604,51.0,-242.0,-91.0,-248.0,1732.0,603.0,114.0,-920.0,-189.0,3
605,50.0,-238.0,-92.0,-250.0,1710.0,603.0,111.0,-912.0,-201.0,3
606,48.0,-234.0,-87.0,-265.0,1679.0,603.0,108.0,-900.0,-205.0,3
607,49.0,-232.0,-92.0,-293.0,1647.0,602.0,105.0,-886.0,-195.0,3
608,48.0,-235.0,-91.0,-323.0,1619.0,598.0,112.0,-890.0,-201.0,3
609,53.0,-235.0,-90.0,-351.0,1595.0,591.0,123.0,-888.0,-200.0,3
610,54.0,-233.0,-93.0,-379.0,1576.0,579.0,129.0,-888.0,-207.0,3
611,58.0,-233.0,-96.0,-410.0,1559.0,563.0,133.0,-882.0,-214.0,3
612,61.0,-234.0,-99.0,-447.0,1549.0,543.0,153.0,-885.0,-218.0,3
613,63.0,-231.0,-95.0,-493.0,1546.0,521.0,171.0,-885.0,-220.0,3
614,69.0,-233.0,-95.0,-536.0,1550.0,500.0,180.0,-885.0,-211.0,3
615,70.0,-235.0,-93.0,-568.0,1563.0,472.0,189.0,-890.0,-205.0,3
616,70.0,-241.0,-90.0,-587.0,1580.0,446.0,199.0,-913.0,-197.0,3
617,75.0,-239.0,-86.0,-596.0,1598.0,419.0,209.0,-924.0,-191.0,3
618,78.0,-250.0,-91.0,-601.0,1619.0,398.0,211.0,-939.0,-181.0,3
619,77.0,-255.0,-90.0,-599.0,1644.0,378.0,214.0,-956.0,-176.0,3
620,74.0,-259.0,-82.0,-593.0,1664.0,359.0,207.0,-978.0,-165.0,3
621,70.0,-264.0,-78.0,-585.0,1670.0,342.0,199.0,-1004.0,-149.0,3
622,67.0,-271.0,-74.0,-575.0,1660.0,337.0,181.0,-1027.0,-135.0,3
623,67.0,-282.0,-71.0,-563.0,1636.0,345.0,180.0,-1064.0,-132.0,3
624,65.0,-283.0,-67.0,-557.0,1606.0,356.0,185.0,-1088.0,-119.0,3
625,67.0,-290.0,-69.0,-561.0,1569.0,369.0,184.0,-1108.0,-115.0,3
626,68.0,-297.0,-72.0,-584.0,1534.0,384.0,195.0,-1130.0,-111.0,3
627,70.0,-303.0,-67.0,-626.0,1499.0,390.0,188.0,-1145.0,-103.0,3
628,69.0,-303.0,-63.0,-659.0,1464.0,394.0,200.0,-1159.0,-86.0,3
629,77.0,-302.0,-62.0,-668.0,1432.0,394.0,211.0,-1155.0,-75.0,3
630,79.0,-302.0,-56.0,-656.0,1403.0,388.0,227.0,-1146.0,-76.0,3
631,82.0,-300.0,-58.0,-632.0,1371.0,370.0,242.0,-1136.0,-78.0,3
632,83.0,-297.0,-63.0,-602.0,1326.0,344.0,248.0,-1124.0,-87.0,3
633,82.0,-291.0,-64.0,-566.0,1268.0,311.0,246.0,-1106.0,-98.0,3
634,77.0,-287.0,-65.0,-539.0,1210.0,276.0,227.0,-1089.0,-110.0,3
635,72.0,-279.0,-71.0,-525.0,1159.0,247.0,204.0,-1069.0,-123.0,3
636,66.0,-271.0,-75.0,-524.0,1116.0,223.0,184.0,-1056.0,-148.0,3
637,61.0,-271.0,-84.0,-529.0,1082.0,204.0,149.0,-1033.0,-178.0,3
638,53.0,-270.0,-87.0,-542.0,1055.0,189.0,117.0,-1026.0,-199.0,3
639,43.0,-266.0,-99.0,-556.0,1034.0,181.0,83.0,-1023.0,-225.0,3
640,39.0,-270.0,-105.0,-568.0,1012.0,177.0,63.0,-1018.0,-248.0,3
641,38.0,-267.0,-110.0,-579.0,980.0,180.0,58.0,-1014.0,-288.0,3
642,37.0,-265.0,-116.0,-582.0,933.0,188.0,69.0,-1006.0,-319.0,3
643,36.0,-259.0,-130.0,-579.0,880.0,204.0,59.0,-984.0,-361.0,3
644,36.0,-254.0,-138.0,-570.0,824.0,224.0,62.0,-962.0,-387.0,3
645,31.0,-248.0,-143.0,-562.0,765.0,247.0,55.0,-941.0,-420.0,3
646,35.0,-243.0,-155.0,-556.0,704.0,280.0,54.0,-922.0,-456.0,3
647,32.0,-235.0,-166.0,-550.0,642.0,321.0,57.0,-890.0,-500.0,3
648,32.0,-235.0,-177.0,-545.0,590.0,367.0,49.0,-877.0,-555.0,3
649,23.0,-224.0,-187.0,-542.0,540.0,414.0,20.0,-854.0,-600.0,3
650,15.0,-218.0,-196.0,-537.0,484.0,464.0,-1.0,-826.0,-636.0,3
651,15.0,-210.0,-207.0,-532.0,422.0,516.0,-23.0,-789.0,-676.0,3
652,14.0,-203.0,-214.0,-520.0,363.0,561.0,-33.0,-758.0,-705.0,3
653,18.0,-197.0,-223.0,-507.0,324.0,595.0,-29.0,-721.0,-726.0,3
654,27.0,-191.0,-221.0,-483.0,323.0,614.0,-1.0,-698.0,-714.0,3
655,42.0,-190.0,-208.0,-440.0,377.0,606.0,50.0,-697.0,-688.0,3
656,54.0,-195.0,-201.0,-368.0,483.0,563.0,94.0,-719.0,-636.0,3
657,58.0,-206.0,-190.0,-277.0,612.0,497.0,115.0,-761.0,-589.0,3
658,59.0,-222.0,-181.0,-173.0,736.0,427.0,124.0,-816.0,-567.0,3
659,61.0,-240.0,-183.0,-68.0,844.0,366.0,118.0,-874.0,-558.0,3
660,58.0,-253.0,-175.0,19.0,936.0,314.0,131.0,-938.0,-556.0,3
661,63.0,-263.0,-182.0,79.0,1014.0,274.0,146.0,-983.0,-561.0,3
662,66.0,-271.0,-176.0,125.0,1091.0,248.0,162.0,-1020.0,-547.0,3
663,64.0,-280.0,-170.0,169.0,1169.0,237.0,169.0,-1059.0,-530.0,3
664,64.0,-286.0,-169.0,212.0,1240.0,241.0,171.0,-1079.0,-527.0,3
665,62.0,-288.0,-175.0,242.0,1282.0,255.0,151.0,-1100.0,-559.0,3
666,60.0,-289.0,-187.0,232.0,1292.0,282.0,147.0,-1124.0,-607.0,3
667,56.0,-291.0,-202.0,159.0,1277.0,316.0,139.0,-1139.0,-683.0,3
668,56.0,-295.0,-216.0,26.0,1260.0,356.0,133.0,-1139.0,-740.0,3
669,54.0,-301.0,-227.0,-145.0,1239.0,409.0,141.0,-1166.0,-762.0,3
670,58.0,-311.0,-221.0,-322.0,1208.0,473.0,162.0,-1201.0,-744.0,3
671,63.0,-325.0,-216.0,-467.0,1161.0,538.0,179.0,-1260.0,-711.0,3
672,68.0,-346.0,-206.0,-563.0,1103.0,612.0,191.0,-1338.0,-681.0,3
673,70.0,-368.0,-202.0,-610.0,1037.0,692.0,210.0,-1414.0,-652.0,3
674,73.0,-389.0,-196.0,-629.0,969.0,778.0,213.0,-1493.0,-652.0,3
675,73.0,-407.0,-205.0,-632.0,895.0,865.0,213.0,-1567.0,-677.0,3
676,72.0,-421.0,-210.0,-638.0,829.0,950.0,210.0,-1616.0,-700.0,3
677,70.0,-432.0,-214.0,-634.0,777.0,1021.0,191.0,-1665.0,-709.0,3
678,62.0,-443.0,-214.0,-612.0,736.0,1080.0,172.0,-1696.0,-707.0,3
679,54.0,-456.0,-206.0,-575.0,705.0,1124.0,137.0,-1729.0,-685.0,3
680,44.0,-463.0,-191.0,-525.0,678.0,1156.0,90.0,-1766.0,-637.0,3
681,28.0,-476.0,-173.0,-460.0,661.0,1174.0,40.0,-1808.0,-571.0,3
682,11.0,-483.0,-150.0,-381.0,646.0,1187.0,-26.0,-1841.0,-491.0,3
683,1.0,-497.0,-139.0,-290.0,628.0,1201.0,-66.0,-1887.0,-420.0,3
684,-8.0,-504.0,-126.0,-208.0,605.0,1206.0,-111.0,-1927.0,-363.0,3
685,-30.0,-502.0,-112.0,-134.0,579.0,1201.0,-177.0,-1928.0,-302.0,3
686,-36.0,-504.0,-101.0,-57.0,547.0,1199.0,-201.0,-1937.0,-261.0,3
687,-38.0,-505.0,-88.0,-3.0,495.0,1197.0,-219.0,-1938.0,-218.0,3
688,-42.0,-500.0,-79.0,28.0,424.0,1191.0,-230.0,-1928.0,-174.0,3
689,-41.0,-498.0,-68.0,48.0,336.0,1184.0,-230.0,-1903.0,-126.0,3
690,-44.0,-486.0,-63.0,71.0,238.0,1168.0,-226.0,-1882.0,-109.0,3
691,-41.0,-474.0,-61.0,84.0,139.0,1155.0,-233.0,-1829.0,-86.0,3
692,-37.0,-456.0,-61.0,102.0,40.0,1139.0,-213.0,-1771.0,-92.0,3
693,-33.0,-434.0,-55.0,109.0,-60.0,1105.0,-197.0,-1685.0,-75.0,3
694,-36.0,-404.0,-52.0,103.0,-167.0,1058.0,-203.0,-1578.0,-59.0,3
695,-36.0,-371.0,-50.0,105.0,-285.0,1012.0,-205.0,-1454.0,-37.0,3
696,-41.0,-338.0,-34.0,116.0,-422.0,962.0,-209.0,-1316.0,-4.0,3
697,-41.0,-296.0,-29.0,142.0,-582.0,902.0,-213.0,-1166.0,27.0,3
698,-47.0,-251.0,-19.0,176.0,-746.0,844.0,-237.0,-998.0,77.0,3
699,-44.0,-212.0,-12.0,198.0,-901.0,804.0,-231.0,-808.0,110.0,3
700,-42.0,-174.0,-9.0,215.0,-1053.0,784.0,-235.0,-651.0,120.0,3
701,-41.0,-135.0,-12.0,251.0,-1185.0,785.0,-237.0,-499.0,110.0,3
702,-26.0,-102.0,-22.0,317.0,-1268.0,781.0,-187.0,-367.0,88.0,3
703,-14.0,-67.0,-25.0,406.0,-1291.0,735.0,-156.0,-227.0,88.0,3
704,-11.0,-37.0,-37.0,519.0,-1252.0,659.0,-138.0,-120.0,46.0,3
705,5.0,-14.0,-40.0,631.0,-1172.0,568.0,-75.0,-25.0,17.0,3
706,24.0,6.0,-66.0,727.0,-1077.0,455.0,-14.0,42.0,-67.0,3
707,35.0,28.0,-89.0,782.0,-968.0,323.0,22.0,124.0,-181.0,3
708,34.0,55.0,-113.0,792.0,-853.0,211.0,31.0,230.0,-269.0,3
709,45.0,75.0,-128.0,780.0,-761.0,134.0,82.0,298.0,-348.0,3
710,72.0,93.0,-140.0,745.0,-688.0,43.0,179.0,373.0,-384.0,3
711,93.0,85.0,-140.0,685.0,-635.0,-85.0,264.0,354.0,-393.0,3
712,90.0,72.0,-148.0,574.0,-603.0,-235.0,275.0,280.0,-421.0,3
713,92.0,52.0,-143.0,393.0,-592.0,-389.0,267.0,203.0,-418.0,3
714,86.0,24.0,-142.0,152.0,-551.0,-459.0,241.0,82.0,-404.0,3
715,92.0,-26.0,-131.0,-119.0,-451.0,-421.0,251.0,-90.0,-372.0,3
716,89.0,-78.0,-123.0,-387.0,-299.0,-357.0,247.0,-274.0,-318.0,3
717,81.0,-122.0,-99.0,-577.0,-93.0,-317.0,205.0,-441.0,-236.0,3
718,74.0,-153.0,-68.0,-630.0,148.0,-290.0,179.0,-537.0,-128.0,3
719,67.0,-169.0,-50.0,-518.0,382.0,-248.0,160.0,-598.0,-48.0,3
720,71.0,-183.0,-53.0,-256.0,573.0,-198.0,174.0,-629.0,-44.0,3
721,69.0,-173.0,-78.0,69.0,693.0,-186.0,183.0,-606.0,-125.0,3
722,52.0,-152.0,-123.0,384.0,730.0,-208.0,151.0,-544.0,-290.0,3
723,24.0,-125.0,-126.0,634.0,685.0,-245.0,42.0,-452.0,-343.0,3
724,14.0,-106.0,-139.0,823.0,642.0,-252.0,-49.0,-362.0,-373.0,3
725,22.0,-98.0,-143.0,961.0,694.0,-202.0,-36.0,-353.0,-394.0,3
726,40.0,-109.0,-188.0,1006.0,882.0,-130.0,26.0,-403.0,-535.0,3
727,35.0,-112.0,-218.0,910.0,1121.0,-77.0,35.0,-430.0,-705.0,3
728,10.0,-107.0,-220.0,690.0,1313.0,-29.0,-35.0,-424.0,-735.0,3
729,-27.0,-115.0,-200.0,454.0,1408.0,52.0,-160.0,-424.0,-663.0,3
730,-52.0,-130.0,-198.0,307.0,1420.0,195.0,-266.0,-479.0,-622.0,3
731,-44.0,-166.0,-242.0,249.0,1404.0,377.0,-273.0,-600.0,-787.0,3
732,-13.0,-192.0,-297.0,172.0,1422.0,547.0,-190.0,-767.0,-1031.0,3
733,0.0,-219.0,-319.0,-50.0,1520.0,671.0,-111.0,-897.0,-1125.0,3
734,-20.0,-244.0,-269.0,-430.0,1651.0,770.0,-167.0,-980.0,-931.0,3
735,-38.0,-272.0,-182.0,-822.0,1680.0,899.0,-201.0,-1073.0,-579.0,3
736,-43.0,-313.0,-115.0,-1049.0,1517.0,1061.0,-180.0,-1175.0,-316.0,3
737,-34.0,-344.0,-102.0,-1032.0,1205.0,1206.0,-167.0,-1280.0,-265.0,3
738,-33.0,-360.0,-158.0,-816.0,857.0,1279.0,-187.0,-1339.0,-471.0,3
739,-38.0,-353.0,-248.0,-550.0,583.0,1256.0,-222.0,-1328.0,-832.0,3
740,-49.0,-327.0,-328.0,-409.0,440.0,1152.0,-279.0,-1254.0,-1155.0,3
741,-72.0,-310.0,-369.0,-444.0,411.0,990.0,-374.0,-1185.0,-1337.0,3
742,-95.0,-303.0,-359.0,-606.0,439.0,807.0,-459.0,-1168.0,-1320.0,3
743,-112.0,-316.0,-328.0,-810.0,433.0,597.0,-502.0,-1196.0,-1196.0,3
744,-98.0,-343.0,-291.0,-981.0,383.0,344.0,-473.0,-1298.0,-1043.0,3
745,-70.0,-383.0,-260.0,-1058.0,359.0,76.0,-385.0,-1446.0,-912.0,3
746,-38.0,-437.0,-234.0,-1036.0,418.0,-168.0,-266.0,-1645.0,-793.0,3
747,-11.0,-488.0,-209.0,-943.0,548.0,-382.0,-164.0,-1829.0,-696.0,3
748,2.0,-520.0,-193.0,-801.0,715.0,-574.0,-99.0,-1971.0,-633.0,3
749,11.0,-545.0,-188.0,-628.0,881.0,-743.0,-47.0,-2058.0,-603.0,3
750,24.0,-555.0,-187.0,-455.0,1009.0,-874.0,5.0,-2126.0,-601.0,3
751,29.0,-561.0,-183.0,-325.0,1104.0,-968.0,18.0,-2145.0,-582.0,3
752,29.0,-571.0,-177.0,-209.0,1157.0,-992.0,29.0,-2175.0,-568.0,3
753,34.0,-576.0,-166.0,-98.0,1179.0,-945.0,50.0,-2195.0,-527.0,3
754,41.0,-567.0,-146.0,21.0,1183.0,-867.0,75.0,-2161.0,-456.0,3
755,50.0,-550.0,-128.0,147.0,1162.0,-799.0,104.0,-2110.0,-377.0,3
756,51.0,-525.0,-107.0,246.0,1133.0,-765.0,129.0,-2032.0,-302.0,3
757,55.0,-509.0,-95.0,313.0,1109.0,-742.0,128.0,-1953.0,-236.0,3
758,58.0,-487.0,-86.0,377.0,1102.0,-693.0,142.0,-1880.0,-192.0,3
759,58.0,-453.0,-79.0,419.0,1117.0,-643.0,140.0,-1761.0,-159.0,3
760,66.0,-419.0,-75.0,441.0,1144.0,-605.0,170.0,-1634.0,-135.0,3
761,71.0,-381.0,-65.0,404.0,1170.0,-588.0,187.0,-1488.0,-110.0,3
762,74.0,-345.0,-59.0,326.0,1200.0,-584.0,200.0,-1356.0,-78.0,3
763,76.0,-315.0,-45.0,241.0,1228.0,-591.0,210.0,-1230.0,-14.0,3
764,83.0,-286.0,-34.0,171.0,1236.0,-608.0,239.0,-1084.0,39.0,3
765,93.0,-250.0,-25.0,105.0,1220.0,-638.0,285.0,-972.0,63.0,3
766,104.0,-228.0,-19.0,39.0,1207.0,-673.0,324.0,-865.0,95.0,3
767,112.0,-200.0,-5.0,-26.0,1197.0,-710.0,356.0,-761.0,133.0,3
768,120.0,-179.0,0.0,-75.0,1178.0,-754.0,374.0,-660.0,159.0,3
769,123.0,-152.0,1.0,-102.0,1145.0,-801.0,397.0,-566.0,170.0,3
770,120.0,-129.0,-8.0,-117.0,1101.0,-835.0,387.0,-483.0,122.0,3
771,111.0,-107.0,-32.0,-130.0,1048.0,-843.0,354.0,-390.0,44.0,3
772,91.0,-92.0,-63.0,-121.0,1000.0,-812.0,279.0,-336.0,-87.0,3
773,70.0,-81.0,-87.0,-79.0,966.0,-720.0,191.0,-272.0,-181.0,3
774,59.0,-68.0,-101.0,9.0,954.0,-611.0,124.0,-215.0,-238.0,3
775,51.0,-55.0,-108.0,150.0,961.0,-501.0,101.0,-153.0,-279.0,3
776,46.0,-33.0,-121.0,341.0,970.0,-406.0,90.0,-68.0,-313.0,3
777,35.0,-10.0,-133.0,558.0,973.0,-328.0,42.0,12.0,-369.0,3
778,9.0,11.0,-146.0,761.0,973.0,-228.0,-47.0,93.0,-420.0,3
779,-16.0,37.0,-165.0,921.0,978.0,-91.0,-141.0,171.0,-485.0,3
780,-34.0,65.0,-162.0,1005.0,993.0,108.0,-213.0,267.0,-480.0,3
781,-62.0,86.0,-149.0,1035.0,1016.0,311.0,-320.0,361.0,-445.0,3
782,-91.0,98.0,-147.0,1023.0,1019.0,485.0,-424.0,381.0,-434.0,3
783,-120.0,90.0,-146.0,912.0,979.0,632.0,-529.0,323.0,-426.0,3
784,-131.0,64.0,-126.0,664.0,886.0,809.0,-569.0,221.0,-328.0,3
785,-124.0,12.0,-105.0,365.0,722.0,968.0,-536.0,23.0,-263.0,3
786,-98.0,-41.0,-76.0,30.0,503.0,1088.0,-435.0,-160.0,-142.0,3
787,-74.0,-92.0,-45.0,-240.0,272.0,1164.0,-352.0,-333.0,-15.0,3
788,-51.0,-138.0,-22.0,-349.0,66.0,1209.0,-276.0,-482.0,70.0,3
789,-32.0,-167.0,-10.0,-267.0,-102.0,1202.0,-201.0,-581.0,114.0,3
790,-18.0,-182.0,-10.0,-27.0,-234.0,1147.0,-144.0,-618.0,122.0,3
791,0.0,-179.0,-35.0,314.0,-325.0,1059.0,-92.0,-619.0,55.0,3
792,11.0,-164.0,-92.0,688.0,-371.0,948.0,-51.0,-569.0,-167.0,3
793,28.0,-132.0,-164.0,1006.0,-354.0,831.0,3.0,-477.0,-453.0,3
794,54.0,-102.0,-205.0,1186.0,-275.0,711.0,103.0,-370.0,-639.0,3
795,75.0,-81.0,-214.0,1204.0,-176.0,568.0,203.0,-297.0,-709.0,3
796,84.0,-75.0,-237.0,1107.0,-116.0,389.0,240.0,-295.0,-819.0,3
797,78.0,-78.0,-271.0,893.0,-131.0,198.0,227.0,-322.0,-950.0,3
798,76.0,-86.0,-300.0,540.0,-202.0,49.0,208.0,-369.0,-1051.0,3
799,74.0,-111.0,-296.0,88.0,-271.0,-56.0,209.0,-481.0,-1006.0,3
800,73.0,-164.0,-251.0,-370.0,-306.0,-192.0,196.0,-678.0,-834.0,3
801,65.0,-232.0,-225.0,-724.0,-324.0,-412.0,179.0,-911.0,-733.0,3
802,63.0,-294.0,-228.0,-934.0,-364.0,-682.0,171.0,-1144.0,-760.0,3
803,84.0,-348.0,-244.0,-1039.0,-401.0,-930.0,229.0,-1341.0,-849.0,3
804,110.0,-390.0,-260.0,-1049.0,-365.0,-1097.0,319.0,-1479.0,-868.0,3
805,130.0,-439.0,-247.0,-893.0,-196.0,-1161.0,374.0,-1620.0,-847.0,3
806,133.0,-458.0,-244.0,-547.0,74.0,-1172.0,385.0,-1674.0,-845.0,3
807,101.0,-448.0,-274.0,-87.0,321.0,-1175.0,296.0,-1667.0,-971.0,3
808,81.0,-427.0,-327.0,336.0,443.0,-1127.0,236.0,-1606.0,-1191.0,3
809,63.0,-402.0,-377.0,573.0,426.0,-1010.0,171.0,-1540.0,-1383.0,3
810,41.0,-373.0,-385.0,559.0,319.0,-826.0,91.0,-1465.0,-1412.0,3
811,22.0,-367.0,-362.0,326.0,190.0,-569.0,10.0,-1447.0,-1305.0,3
812,10.0,-381.0,-309.0,-28.0,60.0,-280.0,-30.0,-1506.0,-1081.0,3
813,16.0,-411.0,-240.0,-369.0,-73.0,6.0,0.0,-1613.0,-823.0,3
814,28.0,-466.0,-185.0,-583.0,-227.0,271.0,46.0,-1755.0,-623.0,3
815,34.0,-506.0,-160.0,-636.0,-396.0,506.0,69.0,-1896.0,-504.0,3
816,30.0,-539.0,-147.0,-563.0,-551.0,709.0,56.0,-2015.0,-450.0,3
817,28.0,-552.0,-164.0,-397.0,-668.0,882.0,19.0,-2125.0,-436.0,3
818,12.0,-577.0,-144.0,-186.0,-748.0,1016.0,-22.0,-2184.0,-443.0,3
819,3.0,-585.0,-143.0,22.0,-791.0,1098.0,-63.0,-2228.0,-446.0,3
820,-2.0,-581.0,-138.0,198.0,-798.0,1137.0,-96.0,-2232.0,-415.0,3
821,-11.0,-574.0,-122.0,324.0,-791.0,1147.0,-125.0,-2222.0,-364.0,3
822,-25.0,-564.0,-101.0,385.0,-803.0,1137.0,-157.0,-2195.0,-297.0,3
823,-32.0,-550.0,-83.0,380.0,-867.0,1114.0,-181.0,-2133.0,-214.0,3
824,-42.0,-531.0,-63.0,331.0,-989.0,1092.0,-198.0,-2073.0,-119.0,3
825,-41.0,-511.0,-40.0,278.0,-1148.0,1053.0,-214.0,-1989.0,-27.0,3
826,-41.0,-493.0,-30.0,255.0,-1307.0,999.0,-214.0,-1913.0,26.0,3
827,-57.0,-455.0,-20.0,263.0,-1434.0,912.0,-282.0,-1794.0,66.0,3
828,-81.0,-413.0,-15.0,306.0,-1543.0,844.0,-356.0,-1630.0,94.0,3
829,-93.0,-380.0,-21.0,360.0,-1630.0,808.0,-426.0,-1451.0,75.0,3
830,-108.0,-341.0,-25.0,428.0,-1679.0,770.0,-481.0,-1303.0,69.0,3
831,-125.0,-298.0,-25.0,490.0,-1698.0,723.0,-546.0,-1143.0,72.0,3
832,-138.0,-243.0,-20.0,544.0,-1718.0,682.0,-623.0,-935.0,73.0,3
833,-148.0,-192.0,-32.0,604.0,-1738.0,669.0,-647.0,-721.0,46.0,3
834,-143.0,-134.0,-47.0,655.0,-1750.0,667.0,-648.0,-512.0,-11.0,3
835,-137.0,-79.0,-65.0,671.0,-1751.0,647.0,-630.0,-295.0,-77.0,3
836,-120.0,-27.0,-81.0,657.0,-1739.0,626.0,-562.0,-95.0,-148.0,3
837,-96.0,21.0,-94.0,625.0,-1715.0,585.0,-466.0,82.0,-202.0,3
838,-69.0,65.0,-101.0,581.0,-1708.0,521.0,-362.0,243.0,-235.0,3
839,-24.0,95.0,-116.0,545.0,-1720.0,443.0,-196.0,389.0,-282.0,3
840,28.0,118.0,-140.0,528.0,-1734.0,347.0,2.0,474.0,-393.0,3
841,85.0,130.0,-169.0,501.0,-1721.0,202.0,203.0,525.0,-492.0,3
842,137.0,137.0,-194.0,436.0,-1675.0,8.0,405.0,535.0,-596.0,3
843,181.0,130.0,-196.0,301.0,-1583.0,-232.0,571.0,517.0,-619.0,3
844,210.0,120.0,-196.0,115.0,-1454.0,-492.0,702.0,469.0,-622.0,3
845,231.0,99.0,-208.0,-104.0,-1326.0,-718.0,773.0,401.0,-638.0,3
846,241.0,65.0,-207.0,-330.0,-1184.0,-884.0,809.0,274.0,-659.0,3
847,244.0,16.0,-201.0,-559.0,-1003.0,-991.0,799.0,103.0,-642.0,3
848,233.0,-41.0,-180.0,-781.0,-761.0,-1054.0,763.0,-110.0,-581.0,3
849,223.0,-102.0,-153.0,-976.0,-463.0,-1085.0,732.0,-344.0,-474.0,3
850,202.0,-151.0,-124.0,-1092.0,-145.0,-1091.0,661.0,-523.0,-346.0,3
851,175.0,-191.0,-85.0,-1057.0,153.0,-1067.0,562.0,-639.0,-199.0,3
852,144.0,-212.0,-58.0,-835.0,398.0,-1013.0,459.0,-729.0,-80.0,3
853,111.0,-221.0,-46.0,-460.0,578.0,-951.0,348.0,-777.0,-13.0,3
854,83.0,-214.0,-39.0,-9.0,706.0,-871.0,255.0,-762.0,3.0,3
855,65.0,-197.0,-52.0,446.0,809.0,-770.0,173.0,-700.0,-10.0,3
856,56.0,-163.0,-65.0,863.0,913.0,-669.0,124.0,-597.0,-59.0,3
857,46.0,-126.0,-86.0,1195.0,1020.0,-584.0,89.0,-474.0,-151.0,3
858,39.0,-90.0,-114.0,1420.0,1112.0,-518.0,68.0,-340.0,-258.0,3
859,37.0,-54.0,-173.0,1533.0,1166.0,-460.0,62.0,-216.0,-439.0,3
860,32.0,-15.0,-245.0,1512.0,1124.0,-412.0,83.0,-94.0,-780.0,3
861,-16.0,18.0,-250.0,1339.0,968.0,-383.0,-62.0,38.0,-845.0,3
862,-87.0,41.0,-248.0,1086.0,791.0,-355.0,-355.0,143.0,-819.0,3
863,-111.0,41.0,-269.0,846.0,658.0,-251.0,-515.0,134.0,-919.0,3
864,-92.0,6.0,-308.0,574.0,623.0,-55.0,-471.0,-4.0,-1064.0,3
865,-79.0,-46.0,-318.0,181.0,748.0,123.0,-452.0,-231.0,-1110.0,3
866,-100.0,-116.0,-257.0,-307.0,1015.0,260.0,-507.0,-489.0,-858.0,3
867,-116.0,-215.0,-144.0,-726.0,1311.0,447.0,-539.0,-831.0,-432.0,3
868,-124.0,-314.0,-48.0,-933.0,1503.0,721.0,-554.0,-1195.0,-44.0,3
869,-127.0,-406.0,49.0,-914.0,1517.0,1031.0,-526.0,-1524.0,312.0,3
870,-106.0,-480.0,94.0,-677.0,1344.0,1335.0,-426.0,-1796.0,504.0,3
871,-73.0,-539.0,62.0,-264.0,977.0,1584.0,-295.0,-2029.0,400.0,3
872,-31.0,-540.0,-19.0,226.0,504.0,1738.0,-151.0,-2042.0,82.0,3
873,18.0,-514.0,-156.0,665.0,75.0,1826.0,2.0,-1960.0,-444.0,3
874,60.0,-460.0,-305.0,916.0,-179.0,1830.0,119.0,-1799.0,-1044.0,3
875,56.0,-403.0,-419.0,850.0,-212.0,1712.0,99.0,-1606.0,-1517.0,3
876,50.0,-347.0,-449.0,441.0,-94.0,1497.0,72.0,-1382.0,-1663.0,3
877,36.0,-351.0,-410.0,-162.0,68.0,1263.0,22.0,-1398.0,-1514.0,3
878,62.0,-379.0,-334.0,-731.0,232.0,1006.0,119.0,-1452.0,-1224.0,3
879,68.0,-399.0,-264.0,-1074.0,386.0,679.0,154.0,-1497.0,-945.0,3
880,75.0,-447.0,-226.0,-1155.0,556.0,359.0,178.0,-1662.0,-770.0,3
881,59.0,-475.0,-197.0,-1084.0,742.0,31.0,125.0,-1785.0,-662.0,3
882,46.0,-506.0,-197.0,-907.0,933.0,-242.0,74.0,-1885.0,-642.0,3
883,22.0,-514.0,-195.0,-679.0,1100.0,-457.0,2.0,-1929.0,-634.0,3
884,-4.0,-512.0,-193.0,-441.0,1217.0,-621.0,-96.0,-1934.0,-638.0,3
885,-32.0,-505.0,-192.0,-216.0,1262.0,-742.0,-197.0,-1912.0,-631.0,3
886,-52.0,-489.0,-191.0,-28.0,1226.0,-829.0,-271.0,-1866.0,-619.0,3
887,-67.0,-474.0,-181.0,104.0,1134.0,-881.0,-330.0,-1822.0,-588.0,3
888,-90.0,-454.0,-163.0,168.0,1002.0,-929.0,-399.0,-1764.0,-530.0,3
889,-107.0,-434.0,-150.0,165.0,839.0,-979.0,-475.0,-1687.0,-467.0,3
890,-115.0,-413.0,-138.0,89.0,670.0,-986.0,-504.0,-1620.0,-411.0,3
891,-108.0,-396.0,-122.0,-51.0,511.0,-959.0,-497.0,-1549.0,-351.0,3
892,-98.0,-389.0,-107.0,-242.0,395.0,-911.0,-462.0,-1522.0,-292.0,3
893,-80.0,-391.0,-93.0,-465.0,349.0,-856.0,-414.0,-1512.0,-227.0,3
894,-64.0,-394.0,-75.0,-665.0,357.0,-814.0,-355.0,-1525.0,-150.0,3
895,-48.0,-398.0,-67.0,-780.0,394.0,-784.0,-282.0,-1527.0,-91.0,3
896,-23.0,-397.0,-47.0,-788.0,439.0,-784.0,-172.0,-1514.0,-42.0,3
897,4.0,-387.0,-42.0,-708.0,472.0,-794.0,-54.0,-1472.0,-4.0,3
898,41.0,-380.0,-34.0,-582.0,490.0,-802.0,76.0,-1419.0,5.0,3
899,63.0,-356.0,-36.0,-462.0,496.0,-812.0,165.0,-1354.0,18.0,3
900,88.0,-335.0,-32.0,-369.0,491.0,-829.0,259.0,-1271.0,30.0,3
901,98.0,-310.0,-33.0,-314.0,476.0,-860.0,302.0,-1181.0,18.0,3
902,108.0,-290.0,-24.0,-316.0,451.0,-864.0,342.0,-1117.0,60.0,3
903,125.0,-273.0,-1.0,-333.0,421.0,-830.0,387.0,-1054.0,140.0,3
904,129.0,-257.0,16.0,-320.0,391.0,-784.0,412.0,-975.0,216.0,3
905,128.0,-239.0,23.0,-244.0,362.0,-732.0,419.0,-875.0,251.0,3
906,128.0,-204.0,17.0,-102.0,337.0,-673.0,413.0,-749.0,220.0,3
907,129.0,-168.0,-2.0,98.0,330.0,-603.0,406.0,-589.0,143.0,3
908,121.0,-117.0,-37.0,345.0,342.0,-534.0,391.0,-393.0,32.0,3
909,116.0,-63.0,-62.0,627.0,358.0,-483.0,347.0,-165.0,-86.0,3
910,99.0,2.0,-96.0,931.0,373.0,-456.0,291.0,78.0,-204.0,3
911,77.0,66.0,-128.0,1231.0,371.0,-451.0,218.0,296.0,-328.0,3
912,50.0,118.0,-149.0,1478.0,356.0,-446.0,113.0,498.0,-420.0,3
913,24.0,155.0,-168.0,1643.0,347.0,-409.0,1.0,627.0,-489.0,3
914,-13.0,182.0,-172.0,1701.0,354.0,-312.0,-135.0,697.0,-500.0,3
915,-42.0,189.0,-171.0,1621.0,364.0,-142.0,-238.0,703.0,-495.0,3
916,-57.0,167.0,-172.0,1370.0,352.0,66.0,-286.0,596.0,-518.0,3
917,-63.0,144.0,-161.0,941.0,286.0,245.0,-301.0,506.0,-486.0,3
918,-73.0,114.0,-146.0,415.0,152.0,393.0,-342.0,385.0,-427.0,3
919,-83.0,62.0,-132.0,-132.0,-43.0,531.0,-372.0,203.0,-367.0,3
920,-88.0,6.0,-110.0,-643.0,-284.0,662.0,-390.0,12.0,-298.0,3
921,-91.0,-45.0,-87.0,-1055.0,-542.0,768.0,-405.0,-163.0,-198.0,3
922,-89.0,-95.0,-66.0,-1292.0,-768.0,866.0,-410.0,-317.0,-106.0,3
923,-81.0,-128.0,-55.0,-1310.0,-937.0,943.0,-403.0,-440.0,-51.0,3
924,-67.0,-147.0,-53.0,-1128.0,-1039.0,972.0,-364.0,-495.0,-40.0,3
925,-49.0,-151.0,-62.0,-797.0,-1072.0,948.0,-284.0,-499.0,-82.0,3
926,-24.0,-141.0,-81.0,-389.0,-1047.0,876.0,-198.0,-476.0,-176.0,3
927,4.0,-124.0,-112.0,12.0,-977.0,783.0,-103.0,-405.0,-290.0,3
928,46.0,-108.0,-160.0,348.0,-873.0,674.0,42.0,-353.0,-522.0,3
929,84.0,-83.0,-253.0,559.0,-714.0,549.0,218.0,-280.0,-889.0,3
930,127.0,-53.0,-324.0,586.0,-470.0,434.0,380.0,-188.0,-1157.0,3
931,191.0,-42.0,-346.0,410.0,-175.0,351.0,630.0,-155.0,-1222.0,3
932,226.0,-59.0,-323.0,103.0,89.0,213.0,770.0,-225.0,-1139.0,3
933,184.0,-89.0,-294.0,-234.0,207.0,-33.0,630.0,-360.0,-1019.0,3
934,114.0,-125.0,-261.0,-583.0,91.0,-321.0,390.0,-529.0,-914.0,3
935,70.0,-188.0,-219.0,-984.0,-274.0,-554.0,255.0,-768.0,-727.0,3
936,62.0,-274.0,-155.0,-1335.0,-726.0,-726.0,176.0,-1069.0,-453.0,3
937,82.0,-370.0,-78.0,-1462.0,-985.0,-851.0,204.0,-1394.0,-144.0,3
938,114.0,-461.0,1.0,-1272.0,-885.0,-914.0,291.0,-1702.0,167.0,3
939,131.0,-544.0,44.0,-735.0,-468.0,-932.0,326.0,-1996.0,317.0,3
940,116.0,-584.0,22.0,79.0,129.0,-944.0,283.0,-2129.0,228.0,3
941,81.0,-577.0,-58.0,993.0,733.0,-961.0,185.0,-2117.0,-78.0,3
942,44.0,-531.0,-171.0,1783.0,1122.0,-996.0,80.0,-1986.0,-539.0,3
943,4.0,-437.0,-287.0,2249.0,1207.0,-1042.0,-24.0,-1673.0,-1016.0,3
944,-54.0,-344.0,-400.0,2268.0,992.0,-1070.0,-222.0,-1391.0,-1469.0,3
945,-103.0,-290.0,-438.0,1807.0,554.0,-1031.0,-421.0,-1199.0,-1642.0,3
946,-146.0,-286.0,-412.0,1038.0,65.0,-891.0,-620.0,-1202.0,-1536.0,3
947,-134.0,-326.0,-331.0,169.0,-328.0,-669.0,-577.0,-1346.0,-1189.0,3
948,-105.0,-394.0,-237.0,-578.0,-611.0,-496.0,-460.0,-1573.0,-804.0,3
949,-66.0,-470.0,-160.0,-1078.0,-797.0,-395.0,-341.0,-1820.0,-497.0,3
950,-19.0,-533.0,-124.0,-1301.0,-862.0,-298.0,-167.0,-2055.0,-348.0,3
951,22.0,-589.0,-123.0,-1304.0,-831.0,-191.0,-28.0,-2223.0,-328.0,3
952,37.0,-606.0,-144.0,-1167.0,-771.0,-63.0,50.0,-2295.0,-396.0,3
953,37.0,-599.0,-175.0,-962.0,-733.0,93.0,66.0,-2298.0,-497.0,3
954,31.0,-588.0,-183.0,-747.0,-727.0,272.0,55.0,-2266.0,-579.0,3
955,29.0,-576.0,-193.0,-536.0,-758.0,461.0,39.0,-2211.0,-630.0,3
956,25.0,-566.0,-198.0,-322.0,-816.0,636.0,26.0,-2149.0,-645.0,3
957,29.0,-548.0,-191.0,-119.0,-889.0,780.0,35.0,-2106.0,-641.0,3
958,31.0,-535.0,-172.0,47.0,-955.0,883.0,41.0,-2061.0,-578.0,3
959,33.0,-522.0,-137.0,157.0,-1011.0,955.0,42.0,-2019.0,-433.0,3
960,30.0,-510.0,-99.0,203.0,-1056.0,1022.0,45.0,-1972.0,-266.0,3
961,25.0,-494.0,-58.0,197.0,-1120.0,1086.0,33.0,-1918.0,-107.0,3
962,22.0,-481.0,-35.0,143.0,-1222.0,1146.0,20.0,-1866.0,7.0,3
963,13.0,-457.0,-18.0,60.0,-1344.0,1198.0,-9.0,-1784.0,76.0,3
964,1.0,-434.0,-7.0,-32.0,-1456.0,1226.0,-62.0,-1677.0,113.0,3
965,-21.0,-395.0,-2.0,-99.0,-1541.0,1237.0,-149.0,-1531.0,118.0,3
966,-36.0,-357.0,-12.0,-97.0,-1577.0,1238.0,-216.0,-1384.0,97.0,3
967,-48.0,-314.0,-26.0,-35.0,-1575.0,1214.0,-270.0,-1205.0,63.0,3
968,-57.0,-269.0,-42.0,48.0,-1547.0,1149.0,-306.0,-1031.0,15.0,3
969,-69.0,-222.0,-55.0,132.0,-1497.0,1064.0,-346.0,-857.0,-26.0,3
970,-84.0,-176.0,-54.0,200.0,-1448.0,973.0,-409.0,-663.0,-31.0,3
971,-97.0,-121.0,-47.0,261.0,-1418.0,890.0,-458.0,-459.0,-10.0,3
972,-107.0,-69.0,-45.0,339.0,-1398.0,824.0,-493.0,-258.0,-3.0,3
973,-113.0,-24.0,-35.0,436.0,-1390.0,772.0,-517.0,-73.0,6.0,3
974,-110.0,17.0,-45.0,526.0,-1407.0,725.0,-502.0,70.0,9.0,3
975,-97.0,55.0,-47.0,606.0,-1447.0,659.0,-469.0,210.0,-12.0,3
976,-78.0,83.0,-65.0,685.0,-1492.0,574.0,-388.0,334.0,-81.0,3
977,-41.0,106.0,-91.0,743.0,-1533.0,473.0,-280.0,422.0,-173.0,3
978,-2.0,127.0,-108.0,747.0,-1550.0,360.0,-127.0,502.0,-248.0,3
979,44.0,152.0,-128.0,704.0,-1539.0,244.0,45.0,593.0,-323.0,3
980,92.0,171.0,-148.0,631.0,-1496.0,142.0,226.0,656.0,-397.0,3
981,139.0,173.0,-166.0,516.0,-1432.0,46.0,399.0,680.0,-492.0,3
982,181.0,165.0,-181.0,322.0,-1372.0,-98.0,563.0,638.0,-552.0,3
983,218.0,138.0,-184.0,37.0,-1296.0,-284.0,704.0,548.0,-568.0,3
984,230.0,89.0,-174.0,-303.0,-1178.0,-474.0,778.0,372.0,-523.0,3
985,231.0,17.0,-168.0,-648.0,-1024.0,-638.0,783.0,96.0,-507.0,3
986,217.0,-63.0,-159.0,-1008.0,-826.0,-754.0,722.0,-195.0,-475.0,3
987,194.0,-129.0,-138.0,-1315.0,-572.0,-817.0,633.0,-444.0,-422.0,3
988,166.0,-187.0,-115.0,-1459.0,-274.0,-837.0,525.0,-624.0,-333.0,3
989,140.0,-218.0,-91.0,-1379.0,27.0,-830.0,434.0,-750.0,-224.0,3
990,115.0,-231.0,-69.0,-1062.0,311.0,-798.0,341.0,-794.0,-133.0,3
991,97.0,-236.0,-71.0,-561.0,576.0,-719.0,284.0,-810.0,-107.0,3
992,87.0,-223.0,-75.0,17.0,796.0,-621.0,239.0,-762.0,-144.0,3
993,78.0,-191.0,-94.0,587.0,955.0,-524.0,208.0,-668.0,-213.0,3
994,65.0,-152.0,-118.0,1062.0,1061.0,-464.0,169.0,-532.0,-295.0,3
995,59.0,-115.0,-140.0,1402.0,1120.0,-418.0,145.0,-402.0,-385.0,3
996,49.0,-82.0,-168.0,1577.0,1119.0,-374.0,126.0,-309.0,-491.0,3
997,47.0,-62.0,-252.0,1581.0,1027.0,-330.0,134.0,-240.0,-829.0,3
998,20.0,-32.0,-315.0,1387.0,778.0,-295.0,49.0,-145.0,-1106.0,3
999,-63.0,-18.0,-276.0,1021.0,423.0,-269.0,-290.0,-73.0,-960.0,3
1000,-133.0,-32.0,-267.0,700.0,129.0,-177.0,-594.0,-109.0,-915.0,3
1001,-142.0,-63.0,-306.0,476.0,-9.0,-6.0,-684.0,-247.0,-1040.0,3
1002,-122.0,-117.0,-355.0,198.0,145.0,172.0,-667.0,-468.0,-1225.0,3
1003,-109.0,-187.0,-336.0,-233.0,656.0,309.0,-623.0,-749.0,-1201.0,3
1004,-129.0,-280.0,-212.0,-770.0,1314.0,454.0,-628.0,-1093.0,-741.0,3
1005,-156.0,-385.0,-55.0,-1180.0,1781.0,666.0,-674.0,-1453.0,-117.0,3
1006,-167.0,-484.0,99.0,-1287.0,1898.0,973.0,-652.0,-1767.0,507.0,3
1007,-162.0,-580.0,184.0,-968.0,1636.0,1276.0,-605.0,-2129.0,837.0,3
1008,-120.0,-643.0,164.0,-267.0,1071.0,1505.0,-443.0,-2352.0,792.0,3
1009,-65.0,-652.0,17.0,653.0,390.0,1618.0,-300.0,-2434.0,293.0,3
1010,8.0,-595.0,-186.0,1485.0,-99.0,1637.0,-54.0,-2205.0,-412.0,3
1011,55.0,-496.0,-383.0,1935.0,-219.0,1576.0,61.0,-1996.0,-1293.0,3
1012,72.0,-400.0,-508.0,1756.0,-12.0,1442.0,130.0,-1681.0,-1862.0,3
1013,65.0,-346.0,-511.0,1044.0,324.0,1276.0,125.0,-1448.0,-1946.0,3
1014,90.0,-356.0,-415.0,139.0,615.0,1099.0,222.0,-1420.0,-1599.0,3
1015,105.0,-388.0,-317.0,-590.0,771.0,833.0,305.0,-1476.0,-1187.0,3
1016,109.0,-435.0,-253.0,-995.0,865.0,520.0,311.0,-1641.0,-916.0,3
1017,95.0,-474.0,-223.0,-1139.0,988.0,200.0,272.0,-1785.0,-760.0,3
1018,78.0,-497.0,-211.0,-1127.0,1143.0,-96.0,205.0,-1878.0,-710.0,3
1019,63.0,-502.0,-205.0,-1021.0,1310.0,-332.0,154.0,-1887.0,-691.0,3
1020,47.0,-491.0,-194.0,-851.0,1437.0,-510.0,94.0,-1847.0,-645.0,3
1021,25.0,-477.0,-193.0,-618.0,1499.0,-642.0,27.0,-1787.0,-623.0,3
1022,-3.0,-451.0,-190.0,-346.0,1517.0,-726.0,-67.0,-1710.0,-620.0,3
1023,-28.0,-431.0,-191.0,-79.0,1520.0,-758.0,-175.0,-1648.0,-627.0,3
1024,-56.0,-412.0,-189.0,108.0,1509.0,-759.0,-265.0,-1599.0,-623.0,3
1025,-78.0,-397.0,-182.0,171.0,1462.0,-760.0,-353.0,-1535.0,-574.0,3
1026,-101.0,-382.0,-165.0,115.0,1376.0,-759.0,-462.0,-1499.0,-506.0,3
1027,-114.0,-374.0,-143.0,-50.0,1261.0,-761.0,-514.0,-1460.0,-425.0,3
1028,-121.0,-371.0,-125.0,-288.0,1147.0,-746.0,-545.0,-1456.0,-340.0,3
1029,-115.0,-375.0,-102.0,-572.0,1070.0,-703.0,-522.0,-1476.0,-250.0,3
1030,-96.0,-384.0,-76.0,-859.0,1039.0,-657.0,-455.0,-1499.0,-128.0,3
1031,-75.0,-388.0,-47.0,-1093.0,1039.0,-632.0,-364.0,-1518.0,-21.0,3
1032,-51.0,-395.0,-24.0,-1232.0,1056.0,-629.0,-271.0,-1523.0,59.0,3
1033,-32.0,-393.0,-11.0,-1270.0,1073.0,-649.0,-205.0,-1514.0,99.0,3
1034,-13.0,-395.0,-6.0,-1219.0,1076.0,-674.0,-113.0,-1492.0,112.0,3
1035,7.0,-382.0,-5.0,-1092.0,1056.0,-696.0,-37.0,-1440.0,123.0,3
1036,30.0,-360.0,-11.0,-927.0,1023.0,-730.0,42.0,-1351.0,119.0,3
1037,47.0,-329.0,-10.0,-730.0,973.0,-772.0,120.0,-1227.0,115.0,3
1038,62.0,-296.0,-9.0,-539.0,913.0,-805.0,169.0,-1108.0,115.0,3
1039,72.0,-261.0,-13.0,-382.0,838.0,-842.0,212.0,-981.0,108.0,3
1040,76.0,-219.0,-13.0,-269.0,742.0,-882.0,233.0,-838.0,104.0,3
1041,84.0,-187.0,-2.0,-188.0,637.0,-903.0,259.0,-700.0,119.0,3
1042,87.0,-146.0,2.0,-123.0,534.0,-904.0,278.0,-536.0,166.0,3
1043,90.0,-103.0,3.0,-19.0,452.0,-879.0,284.0,-365.0,204.0,3
1044,95.0,-65.0,4.0,167.0,401.0,-827.0,286.0,-200.0,180.0,3
1045,89.0,-21.0,-10.0,407.0,396.0,-765.0,276.0,-43.0,129.0,3
1046,88.0,14.0,-30.0,665.0,421.0,-716.0,263.0,103.0,48.0,3
1047,76.0,62.0,-57.0,911.0,463.0,-703.0,210.0,273.0,-41.0,3
1048,52.0,111.0,-85.0,1130.0,506.0,-716.0,111.0,461.0,-158.0,3
1049,21.0,152.0,-111.0,1304.0,554.0,-714.0,-3.0,615.0,-258.0,3
1050,-12.0,195.0,-121.0,1388.0,606.0,-656.0,-129.0,772.0,-305.0,3
1051,-37.0,210.0,-150.0,1385.0,650.0,-521.0,-221.0,799.0,-425.0,3
1052,-50.0,205.0,-170.0,1238.0,672.0,-298.0,-276.0,767.0,-505.0,3
1053,-64.0,198.0,-158.0,880.0,657.0,-21.0,-318.0,738.0,-490.0,3
1054,-65.0,143.0,-177.0,402.0,580.0,268.0,-315.0,535.0,-539.0,3
1055,-60.0,83.0,-159.0,-151.0,435.0,519.0,-284.0,282.0,-486.0,3
1056,-50.0,17.0,-143.0,-748.0,217.0,699.0,-246.0,56.0,-418.0,3
1057,-44.0,-39.0,-116.0,-1275.0,-24.0,843.0,-222.0,-143.0,-295.0,3
1058,-42.0,-93.0,-97.0,-1594.0,-236.0,963.0,-219.0,-361.0,-211.0,3
1059,-43.0,-135.0,-78.0,-1675.0,-401.0,1038.0,-237.0,-483.0,-142.0,3
1060,-49.0,-158.0,-64.0,-1542.0,-520.0,1058.0,-268.0,-555.0,-89.0,3
1061,-49.0,-170.0,-55.0,-1238.0,-595.0,1032.0,-274.0,-571.0,-50.0,3
1062,-41.0,-176.0,-50.0,-818.0,-625.0,981.0,-238.0,-582.0,-31.0,3
1063,-22.0,-174.0,-57.0,-342.0,-607.0,894.0,-175.0,-590.0,-53.0,3
1064,-2.0,-170.0,-64.0,111.0,-553.0,754.0,-103.0,-577.0,-77.0,3
1065,25.0,-162.0,-73.0,498.0,-463.0,578.0,-16.0,-547.0,-121.0,3
1066,56.0,-147.0,-118.0,804.0,-344.0,391.0,131.0,-518.0,-317.0,3
1067,103.0,-121.0,-236.0,990.0,-174.0,213.0,289.0,-442.0,-808.0,3
1068,146.0,-75.0,-335.0,967.0,106.0,88.0,427.0,-281.0,-1208.0,3
1069,216.0,-54.0,-376.0,708.0,447.0,21.0,728.0,-220.0,-1340.0,3
1070,257.0,-75.0,-363.0,330.0,696.0,-108.0,916.0,-316.0,-1321.0,3
1071,162.0,-108.0,-356.0,-65.0,690.0,-415.0,579.0,-440.0,-1293.0,3
1072,54.0,-133.0,-369.0,-511.0,301.0,-764.0,235.0,-562.0,-1367.0,3
1073,11.0,-190.0,-366.0,-1065.0,-430.0,-991.0,40.0,-799.0,-1330.0,3
1074,30.0,-300.0,-287.0,-1597.0,-1081.0,-1107.0,12.0,-1159.0,-999.0,3
1075,80.0,-432.0,-154.0,-1827.0,-1220.0,-1131.0,146.0,-1602.0,-468.0,3
1076,120.0,-558.0,-29.0,-1542.0,-846.0,-1074.0,280.0,-2016.0,34.0,3
1077,129.0,-688.0,26.0,-734.0,-211.0,-1001.0,319.0,-2500.0,255.0,3
1078,102.0,-733.0,30.0,428.0,479.0,-1003.0,239.0,-2658.0,256.0,3
1079,77.0,-708.0,-87.0,1681.0,1056.0,-1034.0,201.0,-2618.0,-174.0,3
1080,26.0,-614.0,-264.0,2635.0,1293.0,-1122.0,86.0,-2356.0,-885.0,3
1081,-41.0,-492.0,-402.0,2945.0,1056.0,-1203.0,-144.0,-1973.0,-1462.0,3
1082,-141.0,-420.0,-481.0,2569.0,541.0,-1163.0,-555.0,-1746.0,-1801.0,3
1083,-230.0,-396.0,-451.0,1719.0,20.0,-960.0,-926.0,-1670.0,-1695.0,3
1084,-204.0,-426.0,-340.0,705.0,-391.0,-611.0,-853.0,-1734.0,-1259.0,3
1085,-116.0,-480.0,-219.0,-142.0,-675.0,-288.0,-511.0,-1885.0,-757.0,3
1086,-36.0,-532.0,-134.0,-641.0,-851.0,-119.0,-225.0,-2049.0,-412.0,3
1087,23.0,-569.0,-108.0,-798.0,-929.0,-9.0,-6.0,-2177.0,-295.0,3
1088,66.0,-584.0,-120.0,-732.0,-924.0,104.0,158.0,-2231.0,-328.0,3
1089,77.0,-577.0,-140.0,-567.0,-868.0,222.0,201.0,-2210.0,-415.0,3
1090,76.0,-559.0,-150.0,-380.0,-800.0,338.0,201.0,-2129.0,-469.0,3
1091,69.0,-524.0,-156.0,-199.0,-742.0,462.0,190.0,-1995.0,-489.0,3
1092,70.0,-497.0,-152.0,-9.0,-703.0,589.0,185.0,-1889.0,-471.0,3
1093,76.0,-464.0,-143.0,177.0,-687.0,709.0,211.0,-1777.0,-441.0,3
1094,97.0,-438.0,-144.0,324.0,-680.0,826.0,260.0,-1677.0,-412.0,3
1095,94.0,-409.0,-126.0,384.0,-670.0,941.0,285.0,-1596.0,-343.0,3
1096,87.0,-385.0,-100.0,323.0,-666.0,1037.0,284.0,-1530.0,-267.0,3
1097,72.0,-382.0,-75.0,146.0,-695.0,1102.0,221.0,-1493.0,-167.0,3
1098,55.0,-375.0,-58.0,-114.0,-782.0,1132.0,168.0,-1483.0,-75.0,3
1099,40.0,-382.0,-39.0,-435.0,-904.0,1153.0,90.0,-1506.0,2.0,3
1100,16.0,-380.0,-20.0,-759.0,-1027.0,1135.0,-1.0,-1488.0,63.0,3
1101,-10.0,-375.0,-10.0,-978.0,-1115.0,1100.0,-103.0,-1443.0,99.0,3
1102,-38.0,-369.0,-18.0,-1031.0,-1147.0,1063.0,-214.0,-1402.0,86.0,3
1103,-63.0,-347.0,-23.0,-951.0,-1123.0,1006.0,-320.0,-1322.0,62.0,3
1104,-82.0,-324.0,-34.0,-796.0,-1082.0,929.0,-398.0,-1235.0,21.0,3
1105,-95.0,-304.0,-50.0,-621.0,-1060.0,827.0,-449.0,-1153.0,4.0,3
1106,-116.0,-271.0,-42.0,-430.0,-1062.0,712.0,-505.0,-1048.0,9.0,3
1107,-137.0,-222.0,-34.0,-204.0,-1082.0,602.0,-595.0,-846.0,38.0,3
1108,-136.0,-185.0,-23.0,82.0,-1116.0,561.0,-616.0,-660.0,62.0,3
1109,-117.0,-137.0,-20.0,419.0,-1162.0,538.0,-540.0,-498.0,64.0,3
1110,-102.0,-81.0,-23.0,748.0,-1226.0,458.0,-469.0,-296.0,80.0,3
1111,-81.0,-30.0,-25.0,1054.0,-1299.0,337.0,-403.0,-89.0,55.0,3
1112,-71.0,26.0,-40.0,1311.0,-1375.0,212.0,-362.0,110.0,42.0,3
1113,-53.0,74.0,-57.0,1512.0,-1431.0,127.0,-304.0,294.0,-13.0,3
1114,-25.0,119.0,-73.0,1646.0,-1467.0,103.0,-199.0,447.0,-88.0,3
1115,7.0,165.0,-93.0,1708.0,-1486.0,89.0,-95.0,634.0,-164.0,3
1116,40.0,200.0,-115.0,1729.0,-1473.0,84.0,42.0,761.0,-269.0,3
1117,75.0,220.0,-156.0,1674.0,-1424.0,51.0,169.0,827.0,-392.0,3
1118,98.0,219.0,-198.0,1477.0,-1350.0,-33.0,247.0,824.0,-560.0,3
1119,124.0,205.0,-228.0,1090.0,-1243.0,-147.0,330.0,751.0,-709.0,3
1120,147.0,171.0,-240.0,528.0,-1099.0,-279.0,437.0,639.0,-777.0,3
1121,173.0,120.0,-228.0,-118.0,-937.0,-436.0,534.0,466.0,-763.0,3
1122,173.0,45.0,-211.0,-751.0,-749.0,-575.0,541.0,213.0,-680.0,3
1123,164.0,-36.0,-182.0,-1322.0,-500.0,-651.0,504.0,-151.0,-580.0,3
1124,160.0,-112.0,-142.0,-1773.0,-202.0,-681.0,486.0,-395.0,-422.0,3
1125,162.0,-168.0,-98.0,-1978.0,102.0,-685.0,493.0,-586.0,-250.0,3
1126,157.0,-208.0,-68.0,-1868.0,388.0,-665.0,486.0,-706.0,-107.0,3
1127,155.0,-231.0,-50.0,-1460.0,647.0,-605.0,479.0,-781.0,-36.0,3
1128,147.0,-239.0,-50.0,-859.0,867.0,-527.0,461.0,-800.0,-27.0,3
1129,136.0,-224.0,-59.0,-177.0,1018.0,-463.0,434.0,-774.0,-72.0,3
1130,117.0,-199.0,-67.0,471.0,1091.0,-424.0,369.0,-693.0,-122.0,3
1131,88.0,-169.0,-81.0,1006.0,1090.0,-400.0,287.0,-584.0,-167.0,3
1132,63.0,-134.0,-95.0,1396.0,1029.0,-363.0,189.0,-480.0,-208.0,3
1133,44.0,-103.0,-118.0,1633.0,930.0,-303.0,124.0,-378.0,-275.0,3
1134,38.0,-75.0,-154.0,1711.0,815.0,-230.0,84.0,-294.0,-425.0,3
1135,52.0,-47.0,-257.0,1630.0,676.0,-156.0,149.0,-207.0,-844.0,3
1136,14.0,-23.0,-278.0,1327.0,468.0,-101.0,16.0,-117.0,-988.0,3
1137,-116.0,-16.0,-258.0,877.0,250.0,-65.0,-467.0,-73.0,-903.0,3
1138,-220.0,-27.0,-262.0,497.0,33.0,50.0,-896.0,-120.0,-882.0,3
1139,-244.0,-60.0,-337.0,166.0,-141.0,290.0,-1073.0,-268.0,-1138.0,3
1140,-225.0,-107.0,-427.0,-312.0,-5.0,583.0,-1082.0,-477.0,-1505.0,3
1141,-209.0,-178.0,-400.0,-1034.0,551.0,838.0,-1023.0,-733.0,-1473.0,3
1142,-198.0,-278.0,-224.0,-1836.0,1200.0,1049.0,-889.0,-1066.0,-857.0,3
1143,-180.0,-389.0,-4.0,-2357.0,1603.0,1193.0,-768.0,-1423.0,2.0,3
1144,-152.0,-506.0,197.0,-2334.0,1644.0,1315.0,-626.0,-1776.0,823.0,3
1145,-114.0,-622.0,303.0,-1652.0,1309.0,1380.0,-419.0,-2175.0,1281.0,3
1146,-70.0,-711.0,264.0,-438.0,636.0,1375.0,-277.0,-2553.0,1214.0,3
1147,-15.0,-702.0,59.0,996.0,-97.0,1337.0,-136.0,-2602.0,562.0,3
1148,53.0,-622.0,-232.0,2164.0,-549.0,1309.0,51.0,-2414.0,-577.0,3
1149,97.0,-508.0,-477.0,2621.0,-535.0,1260.0,233.0,-2022.0,-1570.0,3
1150,86.0,-424.0,-557.0,2234.0,-175.0,1101.0,194.0,-1808.0,-2086.0,3
1151,98.0,-382.0,-503.0,1231.0,247.0,874.0,227.0,-1628.0,-1975.0,3
1152,151.0,-393.0,-364.0,78.0,536.0,644.0,442.0,-1575.0,-1435.0,3
1153,176.0,-448.0,-228.0,-740.0,727.0,408.0,549.0,-1685.0,-878.0,3
1154,165.0,-494.0,-149.0,-1075.0,921.0,178.0,533.0,-1842.0,-497.0,3
1155,138.0,-514.0,-129.0,-1060.0,1105.0,-53.0,454.0,-1950.0,-387.0,3
1156,111.0,-515.0,-153.0,-913.0,1241.0,-249.0,349.0,-1952.0,-466.0,3
1157,80.0,-493.0,-170.0,-772.0,1330.0,-386.0,252.0,-1869.0,-530.0,3
1158,56.0,-463.0,-173.0,-651.0,1377.0,-479.0,131.0,-1746.0,-555.0,3
1159,31.0,-434.0,-169.0,-524.0,1386.0,-546.0,29.0,-1628.0,-533.0,3
1160,3.0,-406.0,-160.0,-369.0,1376.0,-593.0,-78.0,-1522.0,-495.0,3
1161,-20.0,-387.0,-164.0,-195.0,1363.0,-631.0,-175.0,-1453.0,-474.0,3
1162,-50.0,-370.0,-146.0,-56.0,1341.0,-675.0,-277.0,-1413.0,-445.0,3
1163,-85.0,-362.0,-141.0,-4.0,1291.0,-736.0,-398.0,-1398.0,-419.0,3
1164,-115.0,-355.0,-129.0,-76.0,1201.0,-806.0,-505.0,-1387.0,-368.0,3
1165,-131.0,-354.0,-108.0,-275.0,1074.0,-865.0,-580.0,-1394.0,-298.0,3
1166,-140.0,-358.0,-90.0,-559.0,943.0,-913.0,-616.0,-1414.0,-198.0,3
1167,-130.0,-367.0,-68.0,-855.0,847.0,-958.0,-600.0,-1443.0,-115.0,3
1168,-112.0,-378.0,-56.0,-1118.0,814.0,-1011.0,-513.0,-1477.0,-51.0,3
1169,-80.0,-391.0,-40.0,-1309.0,845.0,-1048.0,-409.0,-1512.0,5.0,3
1170,-55.0,-403.0,-30.0,-1411.0,908.0,-1077.0,-296.0,-1538.0,47.0,3
1171,-36.0,-408.0,-30.0,-1414.0,955.0,-1108.0,-218.0,-1554.0,51.0,3
1172,-21.0,-403.0,-24.0,-1341.0,967.0,-1114.0,-142.0,-1525.0,62.0,3
1173,8.0,-396.0,-24.0,-1192.0,928.0,-1091.0,-38.0,-1489.0,57.0,3
1174,40.0,-376.0,-25.0,-971.0,838.0,-1056.0,79.0,-1417.0,51.0,3
1175,59.0,-355.0,-29.0,-699.0,728.0,-1041.0,152.0,-1338.0,36.0,3
1176,82.0,-333.0,-31.0,-446.0,621.0,-1017.0,242.0,-1269.0,36.0,3
1177,107.0,-307.0,-26.0,-259.0,548.0,-984.0,317.0,-1173.0,51.0,3
1178,117.0,-276.0,-19.0,-139.0,527.0,-956.0,367.0,-1058.0,78.0,3
1179,123.0,-239.0,-11.0,-61.0,535.0,-932.0,394.0,-918.0,98.0,3
1180,128.0,-194.0,-13.0,-9.0,540.0,-899.0,412.0,-725.0,109.0,3
1181,131.0,-148.0,-12.0,64.0,531.0,-863.0,413.0,-548.0,112.0,3
1182,131.0,-101.0,-20.0,179.0,511.0,-822.0,420.0,-357.0,90.0,3
1183,129.0,-49.0,-36.0,354.0,477.0,-782.0,413.0,-154.0,43.0,3
1184,125.0,1.0,-53.0,574.0,432.0,-760.0,397.0,52.0,-37.0,3
1185,105.0,66.0,-71.0,807.0,387.0,-760.0,336.0,286.0,-116.0,3
1186,76.0,121.0,-97.0,1059.0,363.0,-789.0,225.0,485.0,-236.0,3
1187,36.0,162.0,-123.0,1302.0,367.0,-836.0,68.0,653.0,-299.0,3
1188,-1.0,196.0,-142.0,1467.0,417.0,-830.0,-88.0,742.0,-396.0,3
1189,-44.0,196.0,-178.0,1444.0,502.0,-707.0,-236.0,735.0,-549.0,3
1190,-72.0,188.0,-197.0,1246.0,603.0,-455.0,-404.0,680.0,-602.0,3
1191,-107.0,155.0,-216.0,859.0,679.0,-120.0,-502.0,547.0,-685.0,3
1192,-119.0,141.0,-198.0,316.0,690.0,227.0,-531.0,473.0,-630.0,3
1193,-121.0,99.0,-194.0,-287.0,610.0,519.0,-520.0,313.0,-599.0,3
1194,-125.0,44.0,-178.0,-909.0,432.0,722.0,-519.0,77.0,-553.0,3
1195,-123.0,-22.0,-163.0,-1536.0,167.0,872.0,-503.0,-154.0,-485.0,3
1196,-108.0,-83.0,-130.0,-2100.0,-134.0,1007.0,-460.0,-356.0,-339.0,3
1197,-89.0,-148.0,-74.0,-2436.0,-414.0,1137.0,-402.0,-543.0,-121.0,3
1198,-64.0,-204.0,-17.0,-2413.0,-626.0,1232.0,-316.0,-709.0,89.0,3
1199,-40.0,-250.0,21.0,-2015.0,-757.0,1255.0,-220.0,-843.0,237.0,3
1200,-12.0,-268.0,36.0,-1342.0,-822.0,1199.0,-124.0,-915.0,303.0,3
1201,8.0,-267.0,31.0,-515.0,-822.0,1072.0,-55.0,-909.0,288.0,3
1202,32.0,-253.0,16.0,334.0,-756.0,912.0,16.0,-856.0,222.0,3
1203,51.0,-219.0,-13.0,1099.0,-647.0,738.0,107.0,-746.0,112.0,3
1204,84.0,-177.0,-66.0,1686.0,-506.0,568.0,229.0,-628.0,-88.0,3
1205,145.0,-131.0,-191.0,2025.0,-322.0,409.0,413.0,-481.0,-590.0,3
1206,178.0,-56.0,-326.0,2073.0,-11.0,284.0,515.0,-218.0,-1145.0,3
1207,259.0,5.0,-416.0,1808.0,408.0,248.0,846.0,-6.0,-1498.0,3
1208,343.0,2.0,-451.0,1285.0,832.0,202.0,1209.0,-37.0,-1658.0,3
1209,288.0,-25.0,-429.0,588.0,1122.0,-34.0,1037.0,-148.0,-1580.0,3
1210,115.0,-48.0,-413.0,-197.0,1053.0,-417.0,467.0,-257.0,-1526.0,3
1211,30.0,-111.0,-410.0,-1081.0,467.0,-746.0,135.0,-503.0,-1513.0,3
1212,40.0,-243.0,-330.0,-1986.0,-299.0,-962.0,83.0,-969.0,-1210.0,3
1213,96.0,-414.0,-148.0,-2597.0,-694.0,-1105.0,223.0,-1534.0,-473.0,3
1214,167.0,-566.0,-3.0,-2545.0,-509.0,-1156.0,463.0,-2033.0,118.0,3
1215,206.0,-690.0,91.0,-1812.0,-20.0,-1148.0,587.0,-2428.0,514.0,3
1216,172.0,-788.0,93.0,-573.0,626.0,-1171.0,505.0,-2828.0,518.0,3
1217,99.0,-783.0,-29.0,895.0,1252.0,-1240.0,287.0,-2882.0,76.0,3
1218,27.0,-704.0,-204.0,2114.0,1581.0,-1312.0,90.0,-2686.0,-624.0,3
1219,-87.0,-559.0,-362.0,2714.0,1439.0,-1386.0,-314.0,-2209.0,-1260.0,3
1220,-226.0,-452.0,-471.0,2612.0,974.0,-1308.0,-855.0,-1879.0,-1737.0,3
1221,-308.0,-399.0,-473.0,1939.0,452.0,-1044.0,-1214.0,-1695.0,-1759.0,3
1222,-289.0,-397.0,-418.0,944.0,-10.0,-682.0,-1170.0,-1678.0,-1470.0,3
1223,-188.0,-435.0,-310.0,-72.0,-399.0,-362.0,-711.0,-1780.0,-1051.0,3
1224,-106.0,-483.0,-223.0,-816.0,-714.0,-191.0,-422.0,-1904.0,-718.0,3
1225,-25.0,-528.0,-180.0,-1189.0,-923.0,-71.0,-137.0,-2035.0,-573.0,3
1226,48.0,-559.0,-177.0,-1251.0,-1002.0,46.0,73.0,-2126.0,-558.0,3
1227,67.0,-571.0,-176.0,-1118.0,-969.0,156.0,171.0,-2143.0,-576.0,3
1228,75.0,-559.0,-179.0,-883.0,-879.0,267.0,196.0,-2114.0,-588.0,3
1229,72.0,-538.0,-185.0,-584.0,-790.0,386.0,198.0,-2033.0,-585.0,3
1230,70.0,-511.0,-178.0,-259.0,-727.0,514.0,195.0,-1933.0,-569.0,3
1231,76.0,-479.0,-173.0,52.0,-702.0,645.0,215.0,-1830.0,-559.0,3
1232,97.0,-449.0,-165.0,294.0,-699.0,767.0,263.0,-1725.0,-532.0,3
1233,115.0,-422.0,-158.0,430.0,-698.0,885.0,337.0,-1639.0,-498.0,3
1234,130.0,-398.0,-144.0,430.0,-689.0,1000.0,419.0,-1565.0,-431.0,3
1235,134.0,-387.0,-111.0,302.0,-682.0,1107.0,432.0,-1527.0,-315.0,3
1236,127.0,-384.0,-76.0,72.0,-721.0,1193.0,420.0,-1508.0,-180.0,3
1237,105.0,-376.0,-43.0,-225.0,-838.0,1250.0,364.0,-1485.0,-41.0,3
1238,79.0,-370.0,-24.0,-535.0,-1004.0,1295.0,268.0,-1462.0,54.0,3
1239,56.0,-377.0,-12.0,-826.0,-1174.0,1344.0,169.0,-1462.0,100.0,3
1240,13.0,-363.0,-9.0,-1013.0,-1305.0,1326.0,19.0,-1399.0,119.0,3
1241,-29.0,-347.0,-16.0,-1063.0,-1373.0,1281.0,-171.0,-1326.0,109.0,3
1242,-58.0,-327.0,-26.0,-978.0,-1377.0,1237.0,-285.0,-1247.0,63.0,3
1243,-80.0,-302.0,-45.0,-790.0,-1338.0,1172.0,-392.0,-1124.0,30.0,3
1244,-100.0,-261.0,-46.0,-544.0,-1287.0,1114.0,-463.0,-988.0,-12.0,3
1245,-116.0,-234.0,-52.0,-291.0,-1253.0,1064.0,-521.0,-881.0,-26.0,3
1246,-124.0,-195.0,-35.0,-60.0,-1242.0,987.0,-564.0,-740.0,14.0,3
1247,-130.0,-160.0,-21.0,189.0,-1250.0,890.0,-579.0,-577.0,68.0,3
1248,-134.0,-122.0,-21.0,478.0,-1274.0,787.0,-598.0,-435.0,87.0,3
1249,-130.0,-83.0,-20.0,777.0,-1320.0,676.0,-587.0,-293.0,72.0,3
1250,-127.0,-46.0,-40.0,1043.0,-1392.0,547.0,-562.0,-152.0,43.0,3
1251,-107.0,-8.0,-45.0,1269.0,-1483.0,408.0,-489.0,-17.0,5.0,3
1252,-82.0,35.0,-61.0,1447.0,-1570.0,280.0,-426.0,128.0,-51.0,3
1253,-53.0,74.0,-70.0,1597.0,-1634.0,214.0,-329.0,290.0,-107.0,3
1254,-3.0,107.0,-93.0,1724.0,-1663.0,203.0,-166.0,413.0,-195.0,3
1255,46.0,134.0,-122.0,1800.0,-1651.0,183.0,19.0,540.0,-301.0,3
1256,98.0,162.0,-151.0,1791.0,-1586.0,130.0,266.0,625.0,-429.0,3
1257,147.0,182.0,-181.0,1674.0,-1457.0,61.0,433.0,676.0,-548.0,3
1258,185.0,178.0,-209.0,1406.0,-1271.0,-14.0,573.0,654.0,-652.0,3
1259,220.0,161.0,-226.0,977.0,-1052.0,-106.0,723.0,583.0,-723.0,3
1260,241.0,121.0,-234.0,416.0,-828.0,-246.0,808.0,419.0,-764.0,3
1261,228.0,61.0,-228.0,-240.0,-613.0,-410.0,756.0,202.0,-740.0,3
1262,204.0,-9.0,-206.0,-902.0,-388.0,-520.0,668.0,-48.0,-677.0,3
1263,189.0,-79.0,-172.0,-1464.0,-140.0,-576.0,602.0,-281.0,-539.0,3
1264,177.0,-134.0,-125.0,-1789.0,113.0,-603.0,570.0,-471.0,-352.0,3
1265,167.0,-189.0,-74.0,-1802.0,353.0,-612.0,519.0,-628.0,-170.0,3
1266,145.0,-223.0,-39.0,-1509.0,578.0,-603.0,455.0,-743.0,-15.0,3
1267,127.0,-236.0,-22.0,-975.0,772.0,-566.0,387.0,-797.0,53.0,3
1268,103.0,-230.0,-24.0,-290.0,913.0,-514.0,316.0,-776.0,66.0,3
1269,79.0,-206.0,-42.0,425.0,996.0,-478.0,235.0,-715.0,8.0,3
1270,54.0,-173.0,-66.0,1067.0,1041.0,-460.0,136.0,-602.0,-79.0,3
1271,34.0,-134.0,-99.0,1573.0,1065.0,-437.0,56.0,-481.0,-199.0,3
1272,14.0,-97.0,-130.0,1897.0,1070.0,-402.0,-4.0,-355.0,-331.0,3
1273,3.0,-62.0,-183.0,2023.0,1041.0,-364.0,-47.0,-250.0,-525.0,3
1274,19.0,-32.0,-286.0,1952.0,943.0,-321.0,18.0,-155.0,-933.0,3
1275,-21.0,0.0,-310.0,1651.0,737.0,-287.0,-92.0,-51.0,-1104.0,3
1276,-141.0,8.0,-295.0,1217.0,495.0,-246.0,-539.0,7.0,-1037.0,3
1277,-231.0,-7.0,-287.0,817.0,239.0,-114.0,-919.0,-36.0,-987.0,3
1278,-256.0,-54.0,-314.0,431.0,17.0,115.0,-1094.0,-207.0,-1045.0,3
1279,-243.0,-112.0,-358.0,-34.0,15.0,394.0,-1129.0,-455.0,-1226.0,3
1280,-218.0,-171.0,-356.0,-663.0,361.0,686.0,-1038.0,-700.0,-1285.0,3
1281,-184.0,-250.0,-257.0,-1397.0,877.0,959.0,-873.0,-982.0,-966.0,3
1282,-150.0,-356.0,-90.0,-2007.0,1302.0,1166.0,-693.0,-1315.0,-331.0,3
1283,-121.0,-453.0,107.0,-2252.0,1449.0,1318.0,-518.0,-1630.0,400.0,3
1284,-92.0,-549.0,241.0,-1951.0,1241.0,1425.0,-350.0,-1835.0,1063.0,3
1285,-41.0,-644.0,297.0,-1094.0,749.0,1491.0,-184.0,-2255.0,1320.0,3
1286,10.0,-704.0,222.0,151.0,169.0,1514.0,-14.0,-2515.0,1003.0,3
1287,75.0,-704.0,11.0,1517.0,-304.0,1481.0,204.0,-2620.0,175.0,3
1288,133.0,-618.0,-234.0,2582.0,-509.0,1365.0,387.0,-2352.0,-788.0,3
1289,145.0,-493.0,-457.0,2919.0,-404.0,1122.0,409.0,-1984.0,-1697.0,3
1290,129.0,-411.0,-541.0,2364.0,-98.0,875.0,340.0,-1726.0,-2024.0,3
1291,116.0,-386.0,-468.0,1179.0,284.0,717.0,313.0,-1633.0,-1743.0,3
1292,159.0,-403.0,-324.0,-144.0,621.0,565.0,478.0,-1637.0,-1152.0,3
1293,159.0,-448.0,-199.0,-1113.0,876.0,308.0,489.0,-1729.0,-667.0,3
1294,148.0,-487.0,-149.0,-1588.0,1094.0,21.0,449.0,-1836.0,-435.0,3
1295,125.0,-511.0,-142.0,-1650.0,1284.0,-238.0,368.0,-1914.0,-429.0,3
1296,88.0,-507.0,-148.0,-1491.0,1418.0,-447.0,256.0,-1908.0,-460.0,3
1297,56.0,-497.0,-157.0,-1253.0,1467.0,-584.0,136.0,-1863.0,-479.0,3
1298,24.0,-471.0,-154.0,-986.0,1450.0,-660.0,14.0,-1768.0,-464.0,3
1299,-4.0,-450.0,-142.0,-690.0,1411.0,-699.0,-110.0,-1669.0,-436.0,3
1300,-40.0,-423.0,-145.0,-364.0,1390.0,-732.0,-238.0,-1584.0,-423.0,3
1301,-73.0,-403.0,-144.0,-76.0,1386.0,-777.0,-367.0,-1522.0,-426.0,3
1302,-111.0,-388.0,-142.0,96.0,1365.0,-841.0,-495.0,-1496.0,-426.0,3
1303,-137.0,-375.0,-136.0,81.0,1294.0,-918.0,-612.0,-1469.0,-395.0,3
1304,-163.0,-362.0,-123.0,-122.0,1172.0,-981.0,-689.0,-1440.0,-329.0,3
1305,-168.0,-361.0,-97.0,-452.0,1031.0,-1021.0,-715.0,-1434.0,-239.0,3
1306,-145.0,-365.0,-73.0,-831.0,913.0,-1045.0,-661.0,-1453.0,-152.0,3
1307,-120.0,-383.0,-58.0,-1178.0,847.0,-1073.0,-553.0,-1476.0,-78.0,3
1308,-81.0,-395.0,-46.0,-1430.0,840.0,-1118.0,-420.0,-1516.0,-27.0,3
1309,-49.0,-400.0,-33.0,-1562.0,879.0,-1157.0,-292.0,-1529.0,15.0,3
1310,-16.0,-402.0,-30.0,-1578.0,925.0,-1185.0,-159.0,-1534.0,48.0,3
1311,10.0,-403.0,-24.0,-1508.0,952.0,-1205.0,-48.0,-1523.0,61.0,3
1312,35.0,-392.0,-23.0,-1381.0,956.0,-1191.0,46.0,-1490.0,56.0,3
1313,65.0,-373.0,-17.0,-1207.0,938.0,-1139.0,169.0,-1415.0,69.0,3
1314,84.0,-348.0,-17.0,-994.0,883.0,-1087.0,259.0,-1322.0,75.0,3
1315,105.0,-319.0,-19.0,-794.0,807.0,-1054.0,326.0,-1207.0,73.0,3
1316,113.0,-283.0,-17.0,-647.0,725.0,-1023.0,355.0,-1083.0,90.0,3
1317,117.0,-245.0,1.0,-538.0,653.0,-966.0,381.0,-937.0,136.0,3
1318,133.0,-207.0,0.0,-416.0,602.0,-887.0,422.0,-783.0,159.0,3
1319,135.0,-163.0,3.0,-260.0,562.0,-822.0,440.0,-603.0,162.0,3
1320,135.0,-116.0,-11.0,-67.0,527.0,-760.0,446.0,-367.0,123.0,3
1321,125.0,-63.0,-26.0,137.0,489.0,-677.0,403.0,-178.0,52.0,3
1322,121.0,-20.0,-51.0,340.0,436.0,-590.0,371.0,-1.0,-48.0,3
1323,93.0,26.0,-72.0,531.0,371.0,-532.0,276.0,178.0,-135.0,3
1324,66.0,86.0,-102.0,731.0,310.0,-517.0,157.0,386.0,-239.0,3
1325,32.0,132.0,-124.0,936.0,278.0,-518.0,17.0,592.0,-312.0,3
1326,-7.0,168.0,-149.0,1103.0,284.0,-500.0,-137.0,686.0,-421.0,3
1327,-40.0,188.0,-166.0,1169.0,316.0,-417.0,-259.0,737.0,-487.0,3
1328,-69.0,182.0,-181.0,1045.0,356.0,-249.0,-368.0,663.0,-567.0,3
1329,-95.0,164.0,-192.0,777.0,387.0,4.0,-440.0,588.0,-589.0,3
1330,-109.0,133.0,-178.0,347.0,384.0,271.0,-495.0,445.0,-555.0,3
1331,-113.0,78.0,-155.0,-192.0,307.0,511.0,-497.0,242.0,-449.0,3
1332,-102.0,16.0,-125.0,-748.0,141.0,700.0,-435.0,13.0,-342.0,3
1333,-92.0,-44.0,-93.0,-1248.0,-98.0,831.0,-402.0,-182.0,-212.0,3
1334,-80.0,-99.0,-66.0,-1576.0,-360.0,934.0,-351.0,-358.0,-95.0,3
1335,-65.0,-144.0,-41.0,-1663.0,-593.0,1013.0,-300.0,-510.0,-1.0,3
1336,-52.0,-173.0,-22.0,-1518.0,-786.0,1051.0,-263.0,-610.0,77.0,3
1337,-38.0,-191.0,-10.0,-1188.0,-933.0,1037.0,-220.0,-646.0,120.0,3
1338,-25.0,-190.0,-7.0,-722.0,-1030.0,976.0,-176.0,-637.0,131.0,3
1339,-7.0,-183.0,-15.0,-186.0,-1070.0,882.0,-117.0,-606.0,103.0,3
1340,11.0,-165.0,-29.0,355.0,-1042.0,776.0,-53.0,-551.0,59.0,3
1341,29.0,-147.0,-46.0,838.0,-960.0,654.0,9.0,-502.0,-9.0,3
1342,41.0,-122.0,-63.0,1191.0,-856.0,510.0,59.0,-434.0,-79.0,3
1343,62.0,-98.0,-95.0,1384.0,-747.0,363.0,120.0,-351.0,-199.0,3
1344,99.0,-69.0,-201.0,1418.0,-604.0,231.0,269.0,-286.0,-599.0,3
1345,129.0,-24.0,-313.0,1254.0,-341.0,133.0,337.0,-115.0,-1075.0,3
1346,200.0,20.0,-381.0,860.0,49.0,127.0,601.0,38.0,-1346.0,3
1347,285.0,12.0,-400.0,294.0,487.0,127.0,946.0,12.0,-1455.0,3
1348,263.0,-41.0,-387.0,-354.0,834.0,-58.0,929.0,-168.0,-1420.0,3
1349,123.0,-71.0,-392.0,-1001.0,888.0,-434.0,488.0,-327.0,-1437.0,3
1350,49.0,-112.0,-420.0,-1732.0,451.0,-771.0,239.0,-495.0,-1549.0,3
1351,65.0,-207.0,-377.0,-2540.0,-326.0,-969.0,230.0,-822.0,-1304.0,3
1352,126.0,-365.0,-235.0,-3135.0,-911.0,-1108.0,342.0,-1314.0,-689.0,3
1353,200.0,-515.0,-97.0,-3141.0,-890.0,-1180.0,565.0,-1923.0,-164.0,3
1354,231.0,-648.0,20.0,-2448.0,-362.0,-1208.0,671.0,-2367.0,252.0,3
1355,196.0,-749.0,61.0,-1179.0,398.0,-1226.0,552.0,-2623.0,408.0,3
1356,130.0,-788.0,8.0,403.0,1184.0,-1246.0,336.0,-2850.0,135.0,3
1357,68.0,-741.0,-125.0,1880.0,1777.0,-1276.0,173.0,-2698.0,-432.0,3
1358,-2.0,-627.0,-313.0,2900.0,1966.0,-1339.0,-91.0,-2328.0,-1196.0,3
1359,-158.0,-463.0,-492.0,3173.0,1666.0,-1403.0,-535.0,-1940.0,-1793.0,3
1360,-291.0,-399.0,-499.0,2650.0,1035.0,-1332.0,-1046.0,-1689.0,-1945.0,3
1361,-298.0,-385.0,-444.0,1626.0,352.0,-1053.0,-1187.0,-1629.0,-1715.0,3
1362,-211.0,-425.0,-314.0,476.0,-225.0,-684.0,-906.0,-1701.0,-1197.0,3
1363,-130.0,-476.0,-221.0,-432.0,-642.0,-415.0,-616.0,-1845.0,-795.0,3
1364,-48.0,-524.0,-183.0,-965.0,-882.0,-257.0,-311.0,-1986.0,-598.0,3
1365,7.0,-559.0,-184.0,-1172.0,-953.0,-126.0,-88.0,-2128.0,-575.0,3
1366,28.0,-572.0,-181.0,-1179.0,-912.0,-12.0,7.0,-2183.0,-594.0,3
1367,34.0,-570.0,-182.0,-1050.0,-842.0,107.0,48.0,-2160.0,-597.0,3
1368,42.0,-549.0,-180.0,-806.0,-808.0,251.0,81.0,-2087.0,-576.0,3
1369,50.0,-522.0,-171.0,-493.0,-816.0,409.0,105.0,-1985.0,-553.0,3
1370,63.0,-498.0,-144.0,-164.0,-849.0,561.0,145.0,-1867.0,-525.0,3
1371,79.0,-452.0,-158.0,125.0,-874.0,702.0,206.0,-1746.0,-485.0,3
1372,94.0,-419.0,-147.0,312.0,-880.0,829.0,276.0,-1624.0,-445.0,3
1373,110.0,-382.0,-137.0,352.0,-864.0,957.0,326.0,-1516.0,-409.0,3
1374,119.0,-361.0,-126.0,232.0,-842.0,1073.0,374.0,-1435.0,-350.0,3
1375,115.0,-346.0,-101.0,-25.0,-857.0,1150.0,376.0,-1386.0,-273.0,3
1376,102.0,-333.0,-87.0,-378.0,-935.0,1201.0,351.0,-1359.0,-195.0,3
1377,83.0,-351.0,-65.0,-834.0,-1061.0,1242.0,281.0,-1385.0,-121.0,3
1378,59.0,-369.0,-35.0,-1295.0,-1181.0,1249.0,180.0,-1420.0,-16.0,3
1379,24.0,-378.0,-25.0,-1524.0,-1279.0,1212.0,54.0,-1433.0,63.0,3
1380,-1.0,-382.0,-13.0,-1508.0,-1337.0,1164.0,-60.0,-1423.0,94.0,3
1381,-30.0,-380.0,-13.0,-1320.0,-1354.0,1120.0,-174.0,-1409.0,99.0,3
1382,-49.0,-362.0,-25.0,-1023.0,-1346.0,1056.0,-275.0,-1345.0,77.0,3
1383,-65.0,-333.0,-33.0,-670.0,-1309.0,986.0,-325.0,-1264.0,42.0,3
1384,-89.0,-292.0,-32.0,-323.0,-1256.0,916.0,-411.0,-1128.0,26.0,3
1385,-105.0,-250.0,-32.0,-22.0,-1226.0,834.0,-473.0,-922.0,39.0,3
1386,-116.0,-199.0,-24.0,225.0,-1216.0,713.0,-533.0,-744.0,51.0,3
1387,-128.0,-141.0,-23.0,410.0,-1223.0,568.0,-576.0,-527.0,79.0,3
1388,-136.0,-80.0,-15.0,542.0,-1243.0,444.0,-603.0,-292.0,98.0,3
1389,-134.0,-29.0,-19.0,639.0,-1276.0,356.0,-610.0,-68.0,80.0,3
1390,-136.0,27.0,-31.0,721.0,-1317.0,281.0,-619.0,131.0,48.0,3
1391,-114.0,72.0,-56.0,834.0,-1364.0,221.0,-528.0,308.0,-28.0,3
1392,-82.0,116.0,-83.0,962.0,-1400.0,177.0,-401.0,474.0,-144.0,3
1393,-57.0,160.0,-112.0,1090.0,-1420.0,142.0,-306.0,644.0,-269.0,3
1394,-7.0,192.0,-152.0,1197.0,-1430.0,136.0,-125.0,767.0,-416.0,3
1395,45.0,218.0,-190.0,1214.0,-1455.0,113.0,77.0,836.0,-580.0,3
1396,97.0,229.0,-220.0,1073.0,-1489.0,29.0,281.0,880.0,-691.0,3
1397,134.0,214.0,-251.0,792.0,-1510.0,-113.0,413.0,815.0,-811.0,3
1398,155.0,185.0,-253.0,347.0,-1504.0,-272.0,494.0,691.0,-847.0,3
1399,181.0,122.0,-243.0,-225.0,-1455.0,-421.0,566.0,449.0,-817.0,3
1400,190.0,29.0,-216.0,-847.0,-1352.0,-518.0,593.0,119.0,-702.0,3
1401,190.0,-65.0,-168.0,-1408.0,-1155.0,-583.0,585.0,-221.0,-522.0,3
1402,190.0,-147.0,-123.0,-1765.0,-867.0,-611.0,590.0,-504.0,-320.0,3
1403,180.0,-202.0,-72.0,-1820.0,-538.0,-603.0,560.0,-694.0,-162.0,3
1404,168.0,-241.0,-63.0,-1554.0,-216.0,-565.0,518.0,-799.0,-80.0,3
1405,154.0,-248.0,-64.0,-1037.0,72.0,-519.0,476.0,-858.0,-92.0,3
1406,140.0,-244.0,-81.0,-416.0,317.0,-496.0,427.0,-843.0,-147.0,3
1407,119.0,-217.0,-101.0,186.0,523.0,-491.0,365.0,-779.0,-210.0,3
1408,92.0,-187.0,-115.0,675.0,685.0,-484.0,276.0,-667.0,-281.0,3
1409,69.0,-144.0,-122.0,1031.0,796.0,-448.0,183.0,-535.0,-333.0,3
1410,48.0,-108.0,-122.0,1256.0,844.0,-383.0,117.0,-400.0,-319.0,3
1411,35.0,-75.0,-113.0,1370.0,845.0,-314.0,72.0,-298.0,-291.0,3
1412,25.0,-57.0,-113.0,1392.0,810.0,-263.0,33.0,-225.0,-271.0,3
1413,18.0,-39.0,-166.0,1341.0,742.0,-220.0,4.0,-162.0,-426.0,3
1414,1.0,-11.0,-226.0,1185.0,582.0,-193.0,-11.0,-77.0,-712.0,3
1415,-77.0,14.0,-206.0,885.0,329.0,-182.0,-285.0,32.0,-673.0,3
1416,-168.0,14.0,-225.0,573.0,74.0,-126.0,-657.0,60.0,-676.0,3
1417,-190.0,14.0,-279.0,280.0,-117.0,10.0,-853.0,28.0,-975.0,3
1418,-190.0,-24.0,-389.0,-130.0,-111.0,208.0,-905.0,-181.0,-1390.0,3
1419,-167.0,-91.0,-403.0,-775.0,255.0,389.0,-833.0,-447.0,-1439.0,3
1420,-151.0,-188.0,-280.0,-1520.0,854.0,546.0,-736.0,-771.0,-955.0,3
1421,-138.0,-316.0,-103.0,-2064.0,1356.0,730.0,-630.0,-1193.0,-253.0,3
1422,-121.0,-419.0,81.0,-2175.0,1522.0,897.0,-484.0,-1536.0,474.0,3
1423,-112.0,-542.0,166.0,-1724.0,1286.0,990.0,-423.0,-1954.0,788.0,3
1424,-81.0,-618.0,155.0,-842.0,766.0,1082.0,-295.0,-2239.0,752.0,3
1425,-41.0,-660.0,55.0,273.0,130.0,1186.0,-168.0,-2422.0,360.0,3
1426,3.0,-653.0,-146.0,1360.0,-406.0,1285.0,-63.0,-2454.0,-411.0,3
1427,55.0,-564.0,-340.0,2086.0,-640.0,1346.0,91.0,-2192.0,-1171.0,3
1428,80.0,-484.0,-492.0,2221.0,-560.0,1326.0,162.0,-1941.0,-1809.0,3
1429,72.0,-430.0,-535.0,1726.0,-263.0,1231.0,126.0,-1777.0,-2019.0,3
1430,68.0,-420.0,-478.0,817.0,89.0,1099.0,134.0,-1720.0,-1797.0,3
1431,77.0,-444.0,-375.0,-118.0,390.0,892.0,189.0,-1759.0,-1383.0,3
1432,78.0,-488.0,-283.0,-771.0,617.0,645.0,190.0,-1870.0,-1007.0,3
1433,60.0,-528.0,-230.0,-1073.0,805.0,396.0,124.0,-1983.0,-798.0,3
1434,41.0,-545.0,-223.0,-1106.0,954.0,169.0,60.0,-2067.0,-750.0,3
1435,34.0,-552.0,-227.0,-1013.0,1062.0,-17.0,28.0,-2078.0,-766.0,3
1436,25.0,-540.0,-222.0,-867.0,1135.0,-160.0,5.0,-2045.0,-748.0,3
1437,16.0,-523.0,-212.0,-653.0,1188.0,-281.0,-34.0,-1962.0,-707.0,3
1438,8.0,-504.0,-196.0,-356.0,1243.0,-393.0,-64.0,-1885.0,-663.0,3
1439,-6.0,-482.0,-187.0,4.0,1301.0,-490.0,-114.0,-1806.0,-615.0,3
1440,-26.0,-461.0,-182.0,347.0,1348.0,-564.0,-188.0,-1750.0,-588.0,3
1441,-53.0,-437.0,-175.0,580.0,1352.0,-626.0,-265.0,-1687.0,-553.0,3
1442,-76.0,-410.0,-160.0,645.0,1282.0,-687.0,-348.0,-1607.0,-494.0,3
1443,-98.0,-383.0,-137.0,544.0,1163.0,-757.0,-432.0,-1517.0,-416.0,3
1444,-108.0,-363.0,-114.0,328.0,1028.0,-829.0,-487.0,-1441.0,-318.0,3
1445,-109.0,-356.0,-103.0,64.0,924.0,-887.0,-495.0,-1411.0,-254.0,3
1446,-100.0,-356.0,-88.0,-243.0,887.0,-915.0,-473.0,-1420.0,-193.0,3
1447,-81.0,-373.0,-67.0,-591.0,906.0,-924.0,-413.0,-1455.0,-119.0,3
1448,-60.0,-392.0,-54.0,-874.0,932.0,-920.0,-329.0,-1505.0,-47.0,3
1449,-34.0,-402.0,-28.0,-1031.0,961.0,-916.0,-225.0,-1525.0,49.0,3
1450,-5.0,-398.0,-17.0,-1019.0,960.0,-937.0,-121.0,-1494.0,89.0,3
1451,10.0,-385.0,-13.0,-859.0,938.0,-987.0,-43.0,-1444.0,81.0,3
1452,28.0,-367.0,-23.0,-643.0,907.0,-1020.0,47.0,-1378.0,57.0,3
1453,57.0,-342.0,-27.0,-417.0,869.0,-1025.0,157.0,-1281.0,52.0,3
1454,86.0,-315.0,-25.0,-215.0,829.0,-1016.0,256.0,-1167.0,55.0,3
1455,101.0,-280.0,-23.0,-56.0,793.0,-988.0,326.0,-1054.0,59.0,3
1456,116.0,-245.0,-15.0,54.0,748.0,-957.0,368.0,-900.0,89.0,3
1457,117.0,-198.0,-12.0,135.0,684.0,-934.0,378.0,-740.0,110.0,3
1458,124.0,-157.0,-19.0,185.0,606.0,-906.0,399.0,-584.0,83.0,3
1459,130.0,-114.0,-31.0,203.0,525.0,-863.0,421.0,-412.0,45.0,3
1460,125.0,-65.0,-35.0,212.0,457.0,-805.0,404.0,-227.0,34.0,3
1461,116.0,-23.0,-32.0,255.0,418.0,-739.0,372.0,-38.0,28.0,3
1462,106.0,20.0,-45.0,364.0,397.0,-695.0,317.0,133.0,-4.0,3
1463,87.0,77.0,-56.0,545.0,382.0,-681.0,254.0,350.0,-53.0,3
1464,62.0,132.0,-71.0,794.0,376.0,-695.0,160.0,594.0,-126.0,3
1465,28.0,172.0,-114.0,1074.0,371.0,-727.0,21.0,708.0,-284.0,3
1466,-15.0,203.0,-149.0,1303.0,363.0,-724.0,-150.0,842.0,-443.0,3
1467,-65.0,204.0,-212.0,1356.0,359.0,-613.0,-335.0,780.0,-674.0,3
1468,-103.0,194.0,-254.0,1213.0,358.0,-374.0,-485.0,705.0,-832.0,3
1469,-116.0,181.0,-260.0,822.0,358.0,-56.0,-537.0,629.0,-877.0,3
1470,-127.0,146.0,-255.0,241.0,340.0,247.0,-572.0,473.0,-839.0,3
1471,-129.0,95.0,-211.0,-455.0,290.0,483.0,-590.0,291.0,-688.0,3
1472,-135.0,24.0,-166.0,-1152.0,208.0,674.0,-586.0,30.0,-507.0,3
1473,-135.0,-59.0,-124.0,-1780.0,72.0,850.0,-576.0,-270.0,-328.0,3
1474,-122.0,-140.0,-66.0,-2268.0,-118.0,1002.0,-522.0,-534.0,-107.0,3
1475,-98.0,-209.0,-11.0,-2486.0,-338.0,1110.0,-433.0,-736.0,115.0,3
1476,-68.0,-256.0,25.0,-2327.0,-557.0,1161.0,-323.0,-884.0,242.0,3
1477,-39.0,-276.0,34.0,-1831.0,-753.0,1131.0,-211.0,-943.0,286.0,3
1478,-15.0,-275.0,25.0,-1115.0,-911.0,1028.0,-134.0,-937.0,264.0,3
1479,7.0,-259.0,6.0,-305.0,-1020.0,895.0,-53.0,-881.0,184.0,3
1480,24.0,-229.0,-21.0,489.0,-1070.0,754.0,9.0,-792.0,77.0,3
1481,47.0,-190.0,-58.0,1178.0,-1061.0,616.0,77.0,-655.0,-47.0,3
1482,64.0,-146.0,-94.0,1715.0,-1003.0,490.0,149.0,-510.0,-244.0,3
1483,95.0,-102.0,-165.0,2059.0,-899.0,383.0,253.0,-321.0,-558.0,3
1484,125.0,-47.0,-273.0,2177.0,-703.0,317.0,355.0,-131.0,-978.0,3
1485,172.0,25.0,-354.0,2037.0,-403.0,328.0,565.0,77.0,-1294.0,3
1486,278.0,52.0,-421.0,1621.0,-26.0,357.0,965.0,128.0,-1544.0,3
1487,343.0,27.0,-436.0,948.0,378.0,246.0,1199.0,11.0,-1600.0,3
1488,294.0,-17.0,-393.0,125.0,662.0,-66.0,980.0,-148.0,-1421.0,3
1489,150.0,-73.0,-341.0,-707.0,608.0,-437.0,502.0,-385.0,-1208.0,3
1490,53.0,-177.0,-284.0,-1504.0,127.0,-756.0,183.0,-777.0,-967.0,3
1491,23.0,-310.0,-178.0,-2158.0,-451.0,-1005.0,19.0,-1247.0,-510.0,3
1492,41.0,-465.0,-68.0,-2430.0,-682.0,-1142.0,56.0,-1780.0,-78.0,3
1493,96.0,-607.0,33.0,-2213.0,-489.0,-1232.0,235.0,-2269.0,299.0,3
1494,88.0,-723.0,86.0,-1496.0,-45.0,-1365.0,198.0,-2620.0,453.0,3
1495,27.0,-743.0,40.0,-384.0,484.0,-1455.0,27.0,-2699.0,370.0,3
1496,-35.0,-691.0,-91.0,871.0,918.0,-1514.0,-208.0,-2618.0,-107.0,3
1497,-87.0,-595.0,-259.0,1880.0,1136.0,-1573.0,-357.0,-2348.0,-783.0,3
1498,-132.0,-462.0,-399.0,2398.0,1065.0,-1594.0,-506.0,-1887.0,-1347.0,3
1499,-199.0,-374.0,-492.0,2350.0,719.0,-1511.0,-754.0,-1572.0,-1800.0,3
1500,-224.0,-332.0,-496.0,1809.0,275.0,-1266.0,-913.0,-1403.0,-1885.0,3
1501,-169.0,-331.0,-430.0,991.0,-118.0,-943.0,-763.0,-1365.0,-1669.0,3
1502,-89.0,-378.0,-337.0,145.0,-450.0,-675.0,-451.0,-1478.0,-1312.0,3
1503,-23.0,-436.0,-261.0,-543.0,-673.0,-494.0,-196.0,-1664.0,-966.0,3
1504,47.0,-496.0,-202.0,-980.0,-879.0,-347.0,60.0,-1857.0,-715.0,3
1505,91.0,-548.0,-174.0,-1150.0,-985.0,-200.0,251.0,-2049.0,-579.0,3
1506,115.0,-576.0,-156.0,-1102.0,-1013.0,-38.0,339.0,-2180.0,-497.0,3
1507,121.0,-591.0,-150.0,-903.0,-1000.0,152.0,372.0,-2240.0,-465.0,3
1508,107.0,-582.0,-153.0,-606.0,-979.0,353.0,340.0,-2222.0,-473.0,3
1509,96.0,-559.0,-155.0,-267.0,-988.0,548.0,301.0,-2138.0,-496.0,3
1510,87.0,-518.0,-175.0,60.0,-1037.0,724.0,265.0,-1998.0,-540.0,3
1511,92.0,-478.0,-183.0,319.0,-1101.0,881.0,267.0,-1865.0,-589.0,3
1512,105.0,-437.0,-185.0,455.0,-1133.0,1021.0,301.0,-1730.0,-595.0,3
1513,113.0,-405.0,-171.0,458.0,-1108.0,1136.0,334.0,-1605.0,-554.0,3
1514,107.0,-383.0,-133.0,347.0,-1056.0,1211.0,328.0,-1512.0,-399.0,3
1515,86.0,-361.0,-95.0,149.0,-1036.0,1243.0,298.0,-1442.0,-241.0,3
1516,64.0,-365.0,-61.0,-168.0,-1095.0,1246.0,202.0,-1444.0,-96.0,3
1517,35.0,-379.0,-26.0,-545.0,-1206.0,1228.0,86.0,-1481.0,42.0,3
1518,5.0,-382.0,2.0,-837.0,-1329.0,1179.0,-38.0,-1457.0,158.0,3
1519,-30.0,-369.0,13.0,-913.0,-1433.0,1104.0,-202.0,-1373.0,210.0,3
1520,-62.0,-348.0,7.0,-759.0,-1472.0,1042.0,-318.0,-1307.0,185.0,3
1521,-88.0,-324.0,-11.0,-491.0,-1456.0,966.0,-426.0,-1207.0,120.0,3
1522,-111.0,-286.0,-28.0,-221.0,-1397.0,887.0,-524.0,-1081.0,50.0,3
1523,-129.0,-245.0,-48.0,19.0,-1328.0,823.0,-576.0,-918.0,-12.0,3
1524,-133.0,-201.0,-62.0,235.0,-1259.0,767.0,-630.0,-761.0,-66.0,3
1525,-153.0,-158.0,-63.0,404.0,-1213.0,688.0,-678.0,-587.0,-83.0,3
1526,-171.0,-119.0,-64.0,519.0,-1216.0,592.0,-723.0,-434.0,-81.0,3
1527,-173.0,-69.0,-64.0,601.0,-1270.0,509.0,-745.0,-255.0,-83.0,3
1528,-166.0,-26.0,-65.0,674.0,-1361.0,459.0,-700.0,-93.0,-78.0,3
1529,-139.0,6.0,-69.0,749.0,-1470.0,433.0,-625.0,47.0,-113.0,3
1530,-115.0,41.0,-87.0,818.0,-1584.0,406.0,-527.0,164.0,-175.0,3
1531,-80.0,64.0,-117.0,891.0,-1687.0,365.0,-424.0,262.0,-270.0,3
1532,-43.0,93.0,-137.0,965.0,-1766.0,305.0,-275.0,379.0,-354.0,3
1533,-3.0,127.0,-159.0,1051.0,-1794.0,239.0,-133.0,526.0,-421.0,3
1534,38.0,163.0,-176.0,1117.0,-1766.0,206.0,34.0,651.0,-490.0,3
1535,83.0,170.0,-207.0,1123.0,-1712.0,182.0,201.0,673.0,-642.0,3
1536,132.0,174.0,-231.0,994.0,-1617.0,126.0,371.0,662.0,-753.0,3
1537,175.0,158.0,-240.0,700.0,-1492.0,20.0,540.0,594.0,-800.0,3
1538,212.0,136.0,-217.0,271.0,-1385.0,-175.0,695.0,518.0,-740.0,3
1539,223.0,97.0,-203.0,-188.0,-1298.0,-390.0,748.0,392.0,-652.0,3
1540,216.0,28.0,-189.0,-610.0,-1164.0,-535.0,715.0,133.0,-594.0,3
1541,197.0,-55.0,-178.0,-1009.0,-954.0,-605.0,641.0,-173.0,-554.0,3
1542,184.0,-123.0,-152.0,-1367.0,-681.0,-642.0,576.0,-426.0,-459.0,3
1543,171.0,-173.0,-120.0,-1561.0,-384.0,-668.0,528.0,-596.0,-338.0,3
1544,156.0,-202.0,-92.0,-1507.0,-91.0,-680.0,494.0,-690.0,-220.0,3
1545,151.0,-220.0,-64.0,-1205.0,189.0,-663.0,461.0,-759.0,-116.0,3
1546,141.0,-231.0,-46.0,-711.0,440.0,-619.0,443.0,-779.0,-23.0,3
1547,128.0,-224.0,-34.0,-104.0,633.0,-576.0,401.0,-769.0,22.0,3
1548,105.0,-201.0,-42.0,509.0,755.0,-541.0,328.0,-697.0,-1.0,3
1549,85.0,-174.0,-45.0,1050.0,817.0,-493.0,255.0,-601.0,-12.0,3
1550,69.0,-140.0,-59.0,1472.0,830.0,-436.0,194.0,-487.0,-50.0,3
1551,56.0,-110.0,-72.0,1772.0,806.0,-365.0,140.0,-382.0,-126.0,3
1552,47.0,-80.0,-99.0,1932.0,761.0,-294.0,103.0,-298.0,-222.0,3
1553,38.0,-60.0,-172.0,1933.0,697.0,-233.0,89.0,-225.0,-513.0,3
1554,34.0,-30.0,-278.0,1767.0,545.0,-189.0,85.0,-148.0,-946.0,3
1555,-56.0,-10.0,-284.0,1371.0,297.0,-179.0,-267.0,-63.0,-980.0,3
1556,-181.0,-13.0,-266.0,890.0,52.0,-118.0,-771.0,-66.0,-914.0,3
1557,-223.0,-41.0,-251.0,492.0,-104.0,71.0,-966.0,-171.0,-841.0,3
1558,-216.0,-116.0,-298.0,159.0,-21.0,370.0,-1033.0,-475.0,-992.0,3
1559,-174.0,-186.0,-344.0,-209.0,486.0,689.0,-893.0,-790.0,-1192.0,3
1560,-134.0,-250.0,-325.0,-739.0,1290.0,916.0,-705.0,-1040.0,-1151.0,3
1561,-140.0,-334.0,-195.0,-1407.0,1983.0,1034.0,-651.0,-1342.0,-657.0,3
1562,-161.0,-441.0,-4.0,-1930.0,2300.0,1099.0,-658.0,-1681.0,86.0,3
1563,-174.0,-543.0,144.0,-2028.0,2105.0,1157.0,-632.0,-2021.0,659.0,3
1564,-144.0,-635.0,211.0,-1621.0,1446.0,1225.0,-509.0,-2314.0,958.0,3
1565,-67.0,-709.0,151.0,-788.0,590.0,1303.0,-267.0,-2576.0,765.0,3
1566,40.0,-695.0,-14.0,299.0,-81.0,1305.0,46.0,-2597.0,121.0,3
1567,121.0,-662.0,-226.0,1329.0,-293.0,1205.0,298.0,-2524.0,-701.0,3
1568,169.0,-554.0,-392.0,1900.0,-132.0,1002.0,478.0,-2197.0,-1372.0,3
1569,153.0,-457.0,-454.0,1843.0,276.0,726.0,435.0,-1865.0,-1686.0,3
1570,147.0,-416.0,-432.0,1298.0,728.0,475.0,423.0,-1692.0,-1623.0,3
1571,159.0,-406.0,-352.0,575.0,1110.0,254.0,480.0,-1629.0,-1322.0,3
1572,139.0,-429.0,-277.0,-67.0,1369.0,41.0,439.0,-1668.0,-998.0,3
1573,114.0,-453.0,-228.0,-481.0,1526.0,-152.0,349.0,-1734.0,-782.0,3
1574,86.0,-466.0,-211.0,-658.0,1596.0,-314.0,258.0,-1773.0,-707.0,3
1575,63.0,-469.0,-201.0,-670.0,1620.0,-422.0,172.0,-1780.0,-679.0,3
1576,47.0,-465.0,-195.0,-588.0,1630.0,-474.0,97.0,-1769.0,-635.0,3
1577,34.0,-461.0,-177.0,-438.0,1646.0,-492.0,43.0,-1748.0,-574.0,3
1578,19.0,-448.0,-158.0,-234.0,1669.0,-501.0,-7.0,-1694.0,-497.0,3
1579,2.0,-437.0,-145.0,-7.0,1683.0,-517.0,-66.0,-1655.0,-445.0,3
1580,-25.0,-424.0,-144.0,190.0,1674.0,-551.0,-159.0,-1618.0,-419.0,3
1581,-59.0,-405.0,-132.0,299.0,1631.0,-611.0,-282.0,-1535.0,-393.0,3
1582,-84.0,-382.0,-129.0,292.0,1552.0,-671.0,-398.0,-1480.0,-359.0,3
1583,-101.0,-365.0,-115.0,166.0,1446.0,-728.0,-475.0,-1422.0,-300.0,3
1584,-107.0,-351.0,-103.0,-51.0,1346.0,-778.0,-499.0,-1381.0,-239.0,3
1585,-96.0,-344.0,-87.0,-325.0,1295.0,-826.0,-457.0,-1362.0,-180.0,3
1586,-73.0,-342.0,-73.0,-622.0,1315.0,-878.0,-373.0,-1360.0,-115.0,3
1587,-51.0,-347.0,-56.0,-886.0,1392.0,-930.0,-289.0,-1352.0,-40.0,3
1588,-26.0,-349.0,-38.0,-1073.0,1496.0,-992.0,-194.0,-1352.0,28.0,3
1589,-1.0,-345.0,-19.0,-1193.0,1604.0,-1041.0,-89.0,-1322.0,88.0,3
1590,19.0,-340.0,-11.0,-1230.0,1678.0,-1076.0,4.0,-1290.0,121.0,3
1591,37.0,-325.0,-6.0,-1180.0,1693.0,-1077.0,69.0,-1229.0,121.0,3
1592,53.0,-309.0,-11.0,-1080.0,1647.0,-1044.0,134.0,-1159.0,118.0,3
1593,69.0,-286.0,-11.0,-962.0,1570.0,-999.0,198.0,-1066.0,117.0,3
1594,72.0,-256.0,-13.0,-819.0,1444.0,-970.0,218.0,-960.0,96.0,3
1595,81.0,-231.0,-18.0,-653.0,1304.0,-908.0,250.0,-844.0,87.0,3
1596,97.0,-196.0,-13.0,-468.0,1170.0,-829.0,309.0,-709.0,106.0,3
1597,109.0,-168.0,-15.0,-253.0,1047.0,-780.0,345.0,-599.0,100.0,3
1598,111.0,-135.0,-22.0,-24.0,955.0,-724.0,344.0,-490.0,64.0,3
1599,113.0,-106.0,-39.0,179.0,925.0,-631.0,354.0,-367.0,30.0,3
1600,116.0,-67.0,-44.0,335.0,935.0,-541.0,357.0,-223.0,-1.0,3
1601,112.0,-30.0,-59.0,493.0,960.0,-503.0,344.0,-73.0,-68.0,3
1602,96.0,14.0,-70.0,660.0,978.0,-525.0,288.0,101.0,-118.0,3
1603,75.0,62.0,-87.0,847.0,984.0,-590.0,213.0,272.0,-191.0,3
1604,45.0,109.0,-105.0,1041.0,976.0,-675.0,97.0,470.0,-252.0,3
1605,7.0,146.0,-135.0,1205.0,953.0,-736.0,-52.0,594.0,-352.0,3
1606,-44.0,132.0,-191.0,1257.0,915.0,-736.0,-236.0,506.0,-531.0,3
1607,-89.0,182.0,-178.0,1089.0,858.0,-649.0,-414.0,680.0,-508.0,3
1608,-131.0,167.0,-199.0,795.0,785.0,-459.0,-585.0,599.0,-615.0,3
1609,-169.0,141.0,-212.0,307.0,695.0,-214.0,-707.0,476.0,-673.0,3
1610,-187.0,101.0,-197.0,-327.0,580.0,40.0,-797.0,320.0,-634.0,3
1611,-197.0,37.0,-182.0,-999.0,432.0,273.0,-829.0,98.0,-558.0,3
1612,-191.0,-28.0,-148.0,-1643.0,249.0,486.0,-800.0,-129.0,-396.0,3
1613,-180.0,-86.0,-111.0,-2142.0,44.0,654.0,-754.0,-335.0,-236.0,3
1614,-164.0,-147.0,-63.0,-2404.0,-175.0,776.0,-699.0,-571.0,-71.0,3
1615,-151.0,-198.0,-29.0,-2400.0,-393.0,842.0,-630.0,-716.0,72.0,3
1616,-131.0,-228.0,-8.0,-2123.0,-592.0,855.0,-560.0,-800.0,136.0,3
1617,-104.0,-242.0,0.0,-1617.0,-742.0,838.0,-444.0,-826.0,157.0,3
1618,-66.0,-248.0,-2.0,-953.0,-827.0,795.0,-320.0,-824.0,139.0,3
1619,-29.0,-238.0,-23.0,-213.0,-847.0,724.0,-177.0,-794.0,47.0,3
1620,15.0,-219.0,-71.0,512.0,-807.0,631.0,-16.0,-734.0,-147.0,3
1621,65.0,-187.0,-170.0,1129.0,-705.0,522.0,159.0,-620.0,-554.0,3
1622,123.0,-132.0,-276.0,1550.0,-494.0,443.0,368.0,-441.0,-994.0,3
1623,231.0,-82.0,-346.0,1706.0,-175.0,399.0,795.0,-289.0,-1218.0,3
1624,364.0,-73.0,-366.0,1617.0,184.0,296.0,1236.0,-273.0,-1333.0,3
1625,367.0,-87.0,-361.0,1348.0,482.0,50.0,1358.0,-333.0,-1305.0,3
1626,292.0,-90.0,-352.0,949.0,563.0,-287.0,1146.0,-371.0,-1283.0,3
1627,219.0,-127.0,-340.0,423.0,314.0,-549.0,886.0,-506.0,-1246.0,3
1628,167.0,-200.0,-292.0,-214.0,-191.0,-723.0,605.0,-758.0,-1073.0,3
1629,143.0,-303.0,-229.0,-790.0,-600.0,-803.0,443.0,-1115.0,-817.0,3
1630,128.0,-401.0,-125.0,-1133.0,-633.0,-816.0,344.0,-1449.0,-426.0,3
1631,98.0,-504.0,-66.0,-1148.0,-319.0,-826.0,260.0,-1748.0,-79.0,3
1632,76.0,-562.0,-19.0,-827.0,222.0,-887.0,148.0,-2035.0,60.0,3
1633,51.0,-594.0,-17.0,-254.0,814.0,-966.0,94.0,-2173.0,112.0,3
1634,31.0,-583.0,-107.0,489.0,1221.0,-1024.0,52.0,-2177.0,-152.0,3
1635,12.0,-498.0,-232.0,1168.0,1350.0,-1115.0,42.0,-1976.0,-676.0,3
1636,-72.0,-443.0,-375.0,1514.0,1140.0,-1244.0,-218.0,-1796.0,-1264.0,3
1637,-159.0,-384.0,-445.0,1369.0,670.0,-1261.0,-561.0,-1593.0,-1624.0,3
1638,-209.0,-371.0,-427.0,819.0,156.0,-1098.0,-834.0,-1511.0,-1629.0,3
1639,-176.0,-406.0,-380.0,62.0,-266.0,-815.0,-797.0,-1614.0,-1455.0,3
1640,-100.0,-459.0,-294.0,-694.0,-564.0,-561.0,-524.0,-1773.0,-1133.0,3
1641,-39.0,-524.0,-235.0,-1230.0,-746.0,-388.0,-291.0,-1972.0,-866.0,3
1642,26.0,-581.0,-188.0,-1484.0,-819.0,-245.0,-45.0,-2178.0,-662.0,3
1643,62.0,-622.0,-167.0,-1496.0,-822.0,-96.0,122.0,-2347.0,-555.0,3
1644,78.0,-644.0,-165.0,-1325.0,-812.0,42.0,220.0,-2430.0,-521.0,3
1645,87.0,-650.0,-169.0,-1056.0,-818.0,244.0,255.0,-2466.0,-559.0,3
1646,80.0,-640.0,-177.0,-747.0,-836.0,443.0,249.0,-2426.0,-570.0,3
1647,77.0,-618.0,-176.0,-431.0,-870.0,621.0,224.0,-2339.0,-580.0,3
1648,69.0,-583.0,-174.0,-123.0,-925.0,778.0,210.0,-2228.0,-569.0,3
1649,75.0,-552.0,-172.0,148.0,-992.0,912.0,211.0,-2116.0,-546.0,3
1650,70.0,-516.0,-156.0,338.0,-1039.0,1019.0,193.0,-1983.0,-481.0,3
1651,74.0,-483.0,-128.0,431.0,-1068.0,1109.0,209.0,-1873.0,-381.0,3
1652,70.0,-455.0,-105.0,404.0,-1100.0,1174.0,206.0,-1787.0,-289.0,3
1653,61.0,-431.0,-77.0,235.0,-1154.0,1217.0,176.0,-1726.0,-186.0,3
1654,35.0,-421.0,-48.0,-79.0,-1238.0,1260.0,59.0,-1676.0,-57.0,3
1655,13.0,-412.0,-28.0,-423.0,-1353.0,1293.0,0.0,-1627.0,41.0,3
1656,-8.0,-397.0,-1.0,-661.0,-1469.0,1280.0,-102.0,-1517.0,125.0,3
1657,-43.0,-366.0,-1.0,-708.0,-1576.0,1229.0,-226.0,-1394.0,152.0,3
1658,-78.0,-339.0,-6.0,-623.0,-1660.0,1157.0,-360.0,-1281.0,140.0,3
1659,-102.0,-298.0,-20.0,-491.0,-1719.0,1075.0,-465.0,-1139.0,89.0,3
1660,-115.0,-262.0,-34.0,-366.0,-1737.0,1001.0,-530.0,-996.0,40.0,3
1661,-132.0,-225.0,-39.0,-281.0,-1720.0,933.0,-611.0,-839.0,16.0,3
1662,-140.0,-182.0,-38.0,-217.0,-1696.0,874.0,-639.0,-682.0,16.0,3
1663,-136.0,-139.0,-34.0,-135.0,-1688.0,793.0,-619.0,-518.0,37.0,3
1664,-128.0,-97.0,-29.0,-9.0,-1699.0,685.0,-576.0,-351.0,54.0,3
1665,-124.0,-57.0,-36.0,161.0,-1726.0,568.0,-564.0,-172.0,46.0,3
1666,-109.0,-6.0,-35.0,360.0,-1761.0,465.0,-513.0,11.0,42.0,3
1667,-89.0,42.0,-54.0,602.0,-1796.0,369.0,-432.0,181.0,-8.0,3
1668,-43.0,77.0,-72.0,868.0,-1823.0,274.0,-276.0,336.0,-92.0,3
1669,8.0,119.0,-104.0,1102.0,-1820.0,176.0,-87.0,467.0,-210.0,3
1670,63.0,155.0,-131.0,1249.0,-1774.0,74.0,94.0,625.0,-333.0,3
1671,100.0,187.0,-176.0,1283.0,-1687.0,-30.0,248.0,673.0,-516.0,3
1672,156.0,217.0,-194.0,1194.0,-1571.0,-146.0,465.0,833.0,-580.0,3
1673,188.0,229.0,-233.0,992.0,-1449.0,-284.0,555.0,811.0,-769.0,3
1674,232.0,227.0,-234.0,621.0,-1300.0,-423.0,771.0,847.0,-769.0,3
1675,248.0,188.0,-239.0,129.0,-1147.0,-586.0,826.0,708.0,-791.0,3
1676,240.0,104.0,-219.0,-484.0,-971.0,-719.0,805.0,413.0,-732.0,3
1677,226.0,9.0,-190.0,-1149.0,-766.0,-804.0,751.0,62.0,-599.0,3
1678,209.0,-86.0,-141.0,-1714.0,-535.0,-856.0,690.0,-272.0,-410.0,3
1679,192.0,-164.0,-104.0,-2035.0,-296.0,-874.0,629.0,-590.0,-260.0,3
1680,183.0,-215.0,-79.0,-2036.0,-47.0,-845.0,580.0,-762.0,-149.0,3
1681,173.0,-253.0,-64.0,-1728.0,206.0,-786.0,536.0,-866.0,-91.0,3
1682,150.0,-255.0,-55.0,-1188.0,461.0,-728.0,450.0,-858.0,-55.0,3
1683,121.0,-235.0,-62.0,-496.0,697.0,-658.0,350.0,-802.0,-87.0,3
1684,97.0,-202.0,-85.0,217.0,885.0,-594.0,275.0,-677.0,-173.0,3
1685,73.0,-153.0,-105.0,832.0,1011.0,-544.0,190.0,-509.0,-253.0,3
1686,53.0,-100.0,-129.0,1286.0,1094.0,-502.0,116.0,-344.0,-333.0,3
1687,30.0,-60.0,-141.0,1547.0,1146.0,-456.0,30.0,-211.0,-412.0,3
1688,3.0,-28.0,-154.0,1620.0,1171.0,-400.0,-52.0,-103.0,-447.0,3
1689,-12.0,-8.0,-161.0,1540.0,1165.0,-331.0,-139.0,-30.0,-469.0,3
1690,-32.0,6.0,-162.0,1339.0,1119.0,-240.0,-185.0,11.0,-480.0,3
1691,-27.0,14.0,-200.0,1072.0,1020.0,-138.0,-157.0,40.0,-632.0,3
1692,-20.0,32.0,-253.0,766.0,820.0,-42.0,-130.0,80.0,-844.0,3
1693,-103.0,37.0,-240.0,390.0,516.0,20.0,-416.0,114.0,-814.0,3
1694,-208.0,37.0,-225.0,25.0,166.0,70.0,-840.0,123.0,-728.0,3
1695,-254.0,19.0,-237.0,-273.0,-172.0,238.0,-1061.0,64.0,-780.0,3
1696,-213.0,-45.0,-311.0,-533.0,-347.0,593.0,-982.0,-181.0,-1034.0,3
1697,-162.0,-108.0,-360.0,-890.0,-142.0,938.0,-843.0,-447.0,-1272.0,3
1698,-124.0,-179.0,-320.0,-1398.0,448.0,1155.0,-677.0,-713.0,-1144.0,3
1699,-116.0,-274.0,-213.0,-1889.0,1095.0,1242.0,-564.0,-1053.0,-761.0,3
1700,-90.0,-379.0,-45.0,-2155.0,1472.0,1276.0,-407.0,-1372.0,-100.0,3
1701,-62.0,-476.0,104.0,-1971.0,1422.0,1280.0,-237.0,-1686.0,495.0,3
1702,-15.0,-561.0,184.0,-1251.0,977.0,1269.0,-6.0,-1905.0,879.0,3
1703,19.0,-662.0,162.0,-97.0,339.0,1276.0,66.0,-2362.0,808.0,3
1704,73.0,-701.0,34.0,1256.0,-204.0,1309.0,204.0,-2543.0,353.0,3
1705,132.0,-665.0,-190.0,2491.0,-441.0,1324.0,351.0,-2500.0,-456.0,3
1706,169.0,-560.0,-423.0,3188.0,-298.0,1276.0,463.0,-2256.0,-1410.0,3
1707,136.0,-477.0,-572.0,2965.0,117.0,1128.0,391.0,-2039.0,-2108.0,3
1708,77.0,-436.0,-564.0,1876.0,543.0,932.0,208.0,-1882.0,-2175.0,3
1709,96.0,-450.0,-438.0,405.0,803.0,757.0,261.0,-1846.0,-1729.0,3
1710,98.0,-504.0,-299.0,-859.0,894.0,541.0,292.0,-1950.0,-1132.0,3
1711,87.0,-566.0,-202.0,-1564.0,943.0,288.0,245.0,-2142.0,-648.0,3
1712,69.0,-614.0,-166.0,-1710.0,1045.0,47.0,167.0,-2325.0,-518.0,3
1713,43.0,-630.0,-171.0,-1486.0,1209.0,-149.0,50.0,-2368.0,-549.0,3
1714,11.0,-614.0,-182.0,-1106.0,1384.0,-305.0,-60.0,-2304.0,-583.0,3
1715,-15.0,-583.0,-180.0,-692.0,1507.0,-424.0,-157.0,-2180.0,-578.0,3
1716,-39.0,-539.0,-172.0,-280.0,1549.0,-509.0,-231.0,-1993.0,-540.0,3
1717,-59.0,-483.0,-153.0,137.0,1544.0,-575.0,-307.0,-1790.0,-471.0,3
1718,-78.0,-439.0,-147.0,540.0,1514.0,-628.0,-385.0,-1647.0,-441.0,3
1719,-107.0,-392.0,-140.0,814.0,1447.0,-667.0,-476.0,-1524.0,-421.0,3
1720,-127.0,-362.0,-129.0,862.0,1335.0,-703.0,-564.0,-1420.0,-360.0,3
1721,-144.0,-335.0,-114.0,694.0,1200.0,-748.0,-630.0,-1338.0,-291.0,3
1722,-156.0,-319.0,-90.0,362.0,1070.0,-804.0,-683.0,-1270.0,-201.0,3
1723,-141.0,-313.0,-76.0,-38.0,984.0,-857.0,-643.0,-1240.0,-130.0,3
1724,-114.0,-317.0,-59.0,-445.0,964.0,-901.0,-524.0,-1274.0,-58.0,3
1725,-80.0,-337.0,-37.0,-811.0,992.0,-947.0,-415.0,-1313.0,14.0,3
1726,-50.0,-354.0,-27.0,-1077.0,1034.0,-999.0,-284.0,-1377.0,55.0,3
1727,-23.0,-362.0,-14.0,-1227.0,1068.0,-1048.0,-172.0,-1395.0,96.0,3
1728,4.0,-374.0,-11.0,-1265.0,1069.0,-1077.0,-69.0,-1409.0,104.0,3
1729,27.0,-375.0,-10.0,-1216.0,1029.0,-1077.0,36.0,-1420.0,106.0,3
1730,63.0,-367.0,-5.0,-1090.0,958.0,-1033.0,166.0,-1375.0,127.0,3
1731,92.0,-347.0,1.0,-898.0,863.0,-1006.0,294.0,-1291.0,148.0,3
1732,100.0,-320.0,-5.0,-665.0,766.0,-1011.0,313.0,-1202.0,132.0,3
1733,108.0,-292.0,-8.0,-461.0,685.0,-997.0,335.0,-1101.0,117.0,3
1734,117.0,-255.0,-7.0,-314.0,616.0,-947.0,382.0,-974.0,127.0,3
1735,127.0,-216.0,-3.0,-218.0,545.0,-891.0,415.0,-821.0,139.0,3
1736,129.0,-174.0,-7.0,-148.0,478.0,-837.0,422.0,-652.0,143.0,3
1737,133.0,-119.0,-8.0,-96.0,435.0,-751.0,427.0,-439.0,131.0,3
1738,132.0,-69.0,-19.0,-12.0,411.0,-650.0,434.0,-229.0,101.0,3
1739,129.0,-17.0,-38.0,130.0,383.0,-562.0,411.0,-13.0,30.0,3
1740,121.0,44.0,-65.0,339.0,343.0,-535.0,399.0,216.0,-72.0,3
1741,102.0,107.0,-97.0,615.0,297.0,-613.0,324.0,473.0,-197.0,3
1742,63.0,162.0,-131.0,905.0,257.0,-733.0,165.0,681.0,-343.0,3
1743,25.0,200.0,-169.0,1144.0,246.0,-779.0,-5.0,808.0,-531.0,3
1744,-12.0,219.0,-209.0,1244.0,290.0,-700.0,-134.0,839.0,-669.0,3
1745,-38.0,213.0,-235.0,1145.0,379.0,-503.0,-238.0,788.0,-781.0,3
1746,-68.0,195.0,-248.0,834.0,474.0,-240.0,-369.0,674.0,-799.0,3
1747,-96.0,159.0,-228.0,331.0,537.0,29.0,-480.0,519.0,-726.0,3
1748,-126.0,97.0,-195.0,-266.0,522.0,283.0,-561.0,292.0,-588.0,3
1749,-144.0,26.0,-153.0,-854.0,423.0,531.0,-619.0,16.0,-442.0,3
1750,-146.0,-49.0,-122.0,-1380.0,244.0,793.0,-622.0,-237.0,-293.0,3
1751,-146.0,-121.0,-77.0,-1755.0,-7.0,1004.0,-604.0,-484.0,-122.0,3
1752,-129.0,-186.0,-40.0,-1879.0,-295.0,1153.0,-523.0,-668.0,4.0,3
1753,-97.0,-223.0,-34.0,-1697.0,-569.0,1240.0,-421.0,-790.0,22.0,3
1754,-68.0,-243.0,-35.0,-1269.0,-783.0,1251.0,-327.0,-845.0,23.0,3
1755,-34.0,-247.0,-38.0,-693.0,-917.0,1208.0,-226.0,-842.0,18.0,3
1756,-4.0,-232.0,-35.0,-34.0,-973.0,1125.0,-136.0,-802.0,9.0,3
1757,25.0,-210.0,-50.0,628.0,-968.0,1014.0,-20.0,-730.0,-19.0,3
1758,50.0,-176.0,-58.0,1215.0,-921.0,879.0,78.0,-625.0,-45.0,3
1759,67.0,-141.0,-66.0,1682.0,-850.0,733.0,155.0,-511.0,-72.0,3
1760,86.0,-107.0,-71.0,1994.0,-761.0,579.0,225.0,-399.0,-111.0,3
1761,119.0,-76.0,-112.0,2136.0,-646.0,426.0,312.0,-299.0,-208.0,3
1762,183.0,-41.0,-245.0,2096.0,-468.0,284.0,506.0,-205.0,-664.0,3
1763,223.0,27.0,-353.0,1816.0,-110.0,176.0,632.0,2.0,-1170.0,3
1764,328.0,66.0,-444.0,1262.0,429.0,170.0,1002.0,147.0,-1517.0,3
1765,386.0,22.0,-434.0,535.0,1010.0,166.0,1354.0,74.0,-1604.0,3
1766,232.0,-17.0,-400.0,-217.0,1397.0,-75.0,999.0,-66.0,-1457.0,3
1767,71.0,-23.0,-463.0,-923.0,1192.0,-521.0,451.0,-134.0,-1684.0,3
1768,32.0,-107.0,-458.0,-1763.0,266.0,-879.0,159.0,-391.0,-1773.0,3
1769,101.0,-293.0,-334.0,-2629.0,-765.0,-1044.0,230.0,-947.0,-1353.0,3
1770,189.0,-499.0,-151.0,-3106.0,-1151.0,-1099.0,459.0,-1663.0,-615.0,3
1771,246.0,-688.0,-9.0,-2893.0,-800.0,-1113.0,710.0,-2388.0,-36.0,3
1772,238.0,-829.0,34.0,-1999.0,-96.0,-1152.0,728.0,-2868.0,285.0,3
1773,160.0,-879.0,-27.0,-576.0,799.0,-1228.0,508.0,-3104.0,171.0,3
1774,56.0,-808.0,-162.0,1004.0,1635.0,-1303.0,198.0,-3085.0,-346.0,3
1775,-44.0,-664.0,-308.0,2187.0,1959.0,-1365.0,-37.0,-2679.0,-940.0,3
1776,-232.0,-540.0,-425.0,2687.0,1589.0,-1436.0,-680.0,-2306.0,-1569.0,3
1777,-365.0,-470.0,-472.0,2467.0,859.0,-1361.0,-1277.0,-1931.0,-1776.0,3
1778,-391.0,-453.0,-472.0,1742.0,82.0,-1094.0,-1535.0,-1904.0,-1758.0,3
1779,-280.0,-473.0,-382.0,727.0,-599.0,-724.0,-1116.0,-1938.0,-1430.0,3
1780,-175.0,-510.0,-302.0,-225.0,-1107.0,-439.0,-743.0,-2027.0,-1103.0,3
1781,-83.0,-552.0,-249.0,-887.0,-1395.0,-268.0,-427.0,-2131.0,-855.0,3
1782,-7.0,-582.0,-221.0,-1197.0,-1483.0,-135.0,-146.0,-2239.0,-749.0,3
1783,33.0,-605.0,-209.0,-1199.0,-1453.0,-31.0,29.0,-2287.0,-702.0,3
1784,51.0,-612.0,-199.0,-968.0,-1389.0,54.0,117.0,-2293.0,-670.0,3
1785,50.0,-597.0,-190.0,-584.0,-1338.0,140.0,121.0,-2235.0,-631.0,3
1786,42.0,-565.0,-191.0,-128.0,-1325.0,251.0,87.0,-2136.0,-613.0,3
1787,51.0,-518.0,-189.0,313.0,-1335.0,385.0,100.0,-1984.0,-603.0,3
1788,69.0,-472.0,-174.0,657.0,-1325.0,533.0,168.0,-1806.0,-570.0,3
1789,93.0,-418.0,-165.0,851.0,-1283.0,679.0,276.0,-1629.0,-512.0,3
1790,115.0,-375.0,-141.0,876.0,-1239.0,816.0,346.0,-1465.0,-429.0,3
1791,109.0,-331.0,-117.0,735.0,-1225.0,940.0,363.0,-1332.0,-331.0,3
1792,103.0,-307.0,-97.0,434.0,-1287.0,1050.0,349.0,-1242.0,-240.0,3
1793,86.0,-294.0,-70.0,5.0,-1438.0,1139.0,290.0,-1193.0,-143.0,3
1794,74.0,-302.0,-56.0,-500.0,-1639.0,1193.0,243.0,-1194.0,-72.0,3
1795,49.0,-309.0,-38.0,-975.0,-1835.0,1182.0,127.0,-1194.0,2.0,3
1796,29.0,-309.0,-27.0,-1209.0,-1957.0,1141.0,39.0,-1172.0,38.0,3
1797,16.0,-320.0,-29.0,-1220.0,-2005.0,1103.0,-21.0,-1193.0,47.0,3
1798,0.0,-316.0,-38.0,-1097.0,-1986.0,1043.0,-96.0,-1163.0,30.0,3
1799,-24.0,-306.0,-44.0,-848.0,-1916.0,997.0,-168.0,-1130.0,8.0,3
1800,-49.0,-267.0,-43.0,-514.0,-1836.0,928.0,-277.0,-982.0,-1.0,3
1801,-62.0,-231.0,-43.0,-144.0,-1766.0,874.0,-326.0,-852.0,-17.0,3
1802,-66.0,-194.0,-43.0,230.0,-1698.0,807.0,-349.0,-704.0,-11.0,3
1803,-70.0,-150.0,-41.0,575.0,-1637.0,708.0,-359.0,-550.0,-2.0,3
1804,-76.0,-95.0,-38.0,861.0,-1603.0,582.0,-390.0,-353.0,19.0,3
1805,-87.0,-38.0,-43.0,1092.0,-1589.0,463.0,-420.0,-137.0,18.0,3
1806,-81.0,18.0,-39.0,1297.0,-1589.0,368.0,-393.0,94.0,23.0,3
1807,-71.0,62.0,-57.0,1499.0,-1610.0,299.0,-357.0,253.0,-21.0,3
1808,-52.0,96.0,-78.0,1647.0,-1653.0,247.0,-280.0,383.0,-96.0,3
1809,-29.0,123.0,-103.0,1715.0,-1712.0,184.0,-206.0,484.0,-237.0,3
1810,0.0,152.0,-124.0,1691.0,-1765.0,111.0,-101.0,606.0,-317.0,3
1811,24.0,190.0,-145.0,1604.0,-1806.0,46.0,15.0,735.0,-401.0,3
1812,55.0,217.0,-160.0,1440.0,-1826.0,19.0,130.0,829.0,-464.0,3
1813,92.0,216.0,-185.0,1191.0,-1828.0,4.0,280.0,801.0,-562.0,3
1814,130.0,203.0,-202.0,821.0,-1798.0,-66.0,393.0,748.0,-629.0,3
1815,159.0,173.0,-206.0,325.0,-1692.0,-197.0,474.0,627.0,-646.0,3
1816,171.0,121.0,-205.0,-245.0,-1496.0,-330.0,518.0,407.0,-635.0,3
1817,179.0,40.0,-194.0,-844.0,-1227.0,-428.0,548.0,96.0,-597.0,3
1818,182.0,-48.0,-169.0,-1420.0,-906.0,-501.0,559.0,-178.0,-484.0,3
1819,180.0,-116.0,-124.0,-1827.0,-560.0,-562.0,555.0,-395.0,-322.0,3
1820,172.0,-158.0,-92.0,-1913.0,-228.0,-598.0,536.0,-531.0,-211.0,3
1821,172.0,-190.0,-86.0,-1674.0,65.0,-601.0,525.0,-634.0,-186.0,3
1822,164.0,-201.0,-90.0,-1210.0,318.0,-592.0,522.0,-682.0,-199.0,3
1823,159.0,-198.0,-108.0,-635.0,541.0,-587.0,491.0,-671.0,-258.0,3
1824,138.0,-185.0,-125.0,-67.0,736.0,-574.0,428.0,-624.0,-331.0,3
1825,115.0,-164.0,-138.0,428.0,888.0,-543.0,343.0,-561.0,-397.0,3
1826,89.0,-135.0,-140.0,809.0,980.0,-507.0,261.0,-479.0,-402.0,3
1827,64.0,-114.0,-138.0,1071.0,1010.0,-455.0,173.0,-407.0,-401.0,3
1828,36.0,-96.0,-134.0,1234.0,988.0,-390.0,83.0,-351.0,-381.0,3
1829,11.0,-81.0,-148.0,1290.0,926.0,-316.0,-15.0,-300.0,-420.0,3
1830,14.0,-70.0,-224.0,1265.0,796.0,-220.0,8.0,-264.0,-709.0,3
1831,-26.0,-47.0,-231.0,1096.0,578.0,-130.0,-142.0,-201.0,-789.0,3
1832,-127.0,-48.0,-199.0,829.0,377.0,-22.0,-539.0,-160.0,-644.0,3
1833,-192.0,-67.0,-187.0,627.0,267.0,169.0,-823.0,-244.0,-578.0,3
1834,-193.0,-110.0,-244.0,459.0,290.0,435.0,-885.0,-441.0,-758.0,3
1835,-153.0,-143.0,-304.0,158.0,529.0,708.0,-798.0,-608.0,-1022.0,3
1836,-134.0,-199.0,-312.0,-366.0,1018.0,898.0,-691.0,-822.0,-1100.0,3
1837,-123.0,-283.0,-203.0,-1017.0,1545.0,1033.0,-590.0,-1097.0,-736.0,3
1838,-98.0,-365.0,-15.0,-1506.0,1834.0,1138.0,-433.0,-1358.0,-45.0,3
1839,-103.0,-486.0,134.0,-1553.0,1742.0,1211.0,-380.0,-1748.0,587.0,3
1840,-92.0,-577.0,204.0,-1022.0,1259.0,1243.0,-335.0,-2042.0,923.0,3
1841,-43.0,-652.0,166.0,-17.0,593.0,1313.0,-212.0,-2332.0,830.0,3
1842,-3.0,-669.0,10.0,1214.0,58.0,1389.0,-110.0,-2486.0,113.0,3
1843,49.0,-593.0,-246.0,2217.0,-171.0,1397.0,65.0,-2258.0,-914.0,3
1844,78.0,-483.0,-456.0,2534.0,-154.0,1318.0,178.0,-1942.0,-1738.0,3
1845,61.0,-420.0,-536.0,2028.0,41.0,1124.0,94.0,-1741.0,-1997.0,3
1846,49.0,-392.0,-473.0,981.0,324.0,949.0,71.0,-1652.0,-1755.0,3
1847,80.0,-424.0,-360.0,-188.0,569.0,743.0,207.0,-1707.0,-1294.0,3
1848,92.0,-465.0,-275.0,-1117.0,727.0,482.0,238.0,-1836.0,-945.0,3
1849,92.0,-523.0,-227.0,-1659.0,882.0,222.0,241.0,-2011.0,-746.0,3
1850,80.0,-572.0,-204.0,-1822.0,1059.0,20.0,204.0,-2172.0,-688.0,3
1851,63.0,-595.0,-202.0,-1698.0,1227.0,-212.0,131.0,-2225.0,-665.0,3
1852,38.0,-587.0,-194.0,-1364.0,1355.0,-390.0,52.0,-2186.0,-635.0,3
1853,18.0,-562.0,-190.0,-899.0,1432.0,-517.0,-34.0,-2057.0,-619.0,3
1854,5.0,-528.0,-191.0,-358.0,1493.0,-601.0,-66.0,-1948.0,-605.0,3
1855,1.0,-494.0,-192.0,165.0,1565.0,-668.0,-94.0,-1841.0,-609.0,3
1856,-13.0,-461.0,-188.0,565.0,1624.0,-725.0,-141.0,-1751.0,-608.0,3
1857,-40.0,-431.0,-180.0,769.0,1640.0,-779.0,-226.0,-1668.0,-560.0,3
1858,-69.0,-407.0,-156.0,759.0,1591.0,-823.0,-329.0,-1594.0,-470.0,3
1859,-93.0,-387.0,-128.0,566.0,1484.0,-851.0,-422.0,-1534.0,-361.0,3
1860,-103.0,-379.0,-102.0,249.0,1357.0,-856.0,-469.0,-1508.0,-245.0,3
1861,-101.0,-378.0,-75.0,-138.0,1249.0,-847.0,-466.0,-1498.0,-133.0,3
1862,-85.0,-383.0,-43.0,-526.0,1187.0,-838.0,-416.0,-1526.0,-29.0,3
1863,-57.0,-398.0,-22.0,-851.0,1178.0,-834.0,-300.0,-1537.0,66.0,3
1864,-21.0,-399.0,-4.0,-1061.0,1210.0,-837.0,-171.0,-1534.0,132.0,3
1865,1.0,-389.0,1.0,-1129.0,1241.0,-852.0,-63.0,-1494.0,160.0,3
1866,23.0,-381.0,-2.0,-1088.0,1247.0,-875.0,18.0,-1440.0,143.0,3
1867,38.0,-360.0,-9.0,-984.0,1225.0,-883.0,72.0,-1376.0,107.0,3
1868,49.0,-335.0,-22.0,-859.0,1181.0,-862.0,132.0,-1279.0,68.0,3
1869,67.0,-301.0,-28.0,-721.0,1124.0,-817.0,198.0,-1136.0,52.0,3
1870,75.0,-262.0,-30.0,-565.0,1042.0,-805.0,231.0,-1000.0,38.0,3
1871,77.0,-231.0,-32.0,-400.0,927.0,-811.0,223.0,-858.0,24.0,3
1872,81.0,-187.0,-21.0,-232.0,791.0,-819.0,252.0,-695.0,51.0,3
