,acc1_x,acc1_y,acc1_z,gyro_x,gyro_y,gyro_z,acc2_x,acc2_y,acc2_z,label
0,-9.0,-9.0,-15.0,839.0,-907.0,-474.0,-38.0,-33.0,-86.0,3
1,8.0,-3.0,-12.0,858.0,-933.0,-477.0,31.0,-26.0,-71.0,3
2,23.0,-3.0,-8.0,878.0,-964.0,-478.0,100.0,-18.0,-54.0,3
3,37.0,-6.0,-13.0,900.0,-997.0,-474.0,156.0,-23.0,-53.0,3
4,48.0,-11.0,-16.0,911.0,-1018.0,-462.0,189.0,-46.0,-86.0,3
5,58.0,-23.0,-18.0,902.0,-1036.0,-431.0,217.0,-69.0,-126.0,3
6,61.0,-28.0,-35.0,870.0,-1030.0,-385.0,229.0,-114.0,-158.0,3
7,59.0,-40.0,-31.0,832.0,-988.0,-342.0,229.0,-162.0,-149.0,3
8,40.0,-50.0,-30.0,793.0,-931.0,-291.0,157.0,-203.0,-146.0,3
9,-1.0,-60.0,-39.0,745.0,-903.0,-234.0,-5.0,-249.0,-197.0,3
10,-52.0,-72.0,-68.0,641.0,-948.0,-141.0,-180.0,-329.0,-306.0,3
11,-78.0,-99.0,-117.0,434.0,-1058.0,21.0,-299.0,-452.0,-511.0,3
12,-89.0,-135.0,-172.0,95.0,-1135.0,236.0,-343.0,-610.0,-727.0,3
13,-88.0,-195.0,-210.0,-340.0,-1094.0,490.0,-350.0,-841.0,-895.0,3
14,-74.0,-281.0,-211.0,-809.0,-966.0,756.0,-290.0,-1169.0,-894.0,3
15,-59.0,-383.0,-157.0,-1269.0,-821.0,1012.0,-212.0,-1545.0,-691.0,3
16,-42.0,-506.0,-66.0,-1696.0,-631.0,1296.0,-177.0,-1932.0,-399.0,3
17,-18.0,-601.0,24.0,-2094.0,-350.0,1634.0,-91.0,-2386.0,28.0,3
18,14.0,-676.0,117.0,-2419.0,-44.0,1901.0,122.0,-2646.0,408.0,3
19,36.0,-725.0,225.0,-2523.0,114.0,1935.0,251.0,-2765.0,820.0,3
20,28.0,-728.0,305.0,-2183.0,2.0,1722.0,249.0,-2697.0,1134.0,3
21,45.0,-692.0,320.0,-1322.0,-335.0,1377.0,269.0,-2541.0,1186.0,3
22,94.0,-656.0,257.0,-175.0,-749.0,1113.0,423.0,-2442.0,1030.0,3
23,143.0,-635.0,171.0,906.0,-1012.0,1003.0,589.0,-2399.0,712.0,3
24,182.0,-603.0,96.0,1673.0,-1032.0,915.0,723.0,-2343.0,404.0,3
25,177.0,-550.0,42.0,1996.0,-888.0,761.0,726.0,-2208.0,165.0,3
26,139.0,-478.0,22.0,1918.0,-671.0,503.0,584.0,-1965.0,81.0,3
27,89.0,-411.0,32.0,1594.0,-443.0,206.0,384.0,-1715.0,104.0,3
28,48.0,-350.0,65.0,1138.0,-235.0,-78.0,226.0,-1433.0,253.0,3
29,14.0,-312.0,108.0,633.0,-63.0,-318.0,50.0,-1271.0,397.0,3
30,-9.0,-289.0,135.0,166.0,52.0,-487.0,-17.0,-1193.0,521.0,3
31,-21.0,-291.0,143.0,-207.0,88.0,-592.0,-37.0,-1184.0,556.0,3
32,-27.0,-304.0,134.0,-474.0,82.0,-655.0,-71.0,-1232.0,522.0,3
33,-37.0,-327.0,123.0,-669.0,86.0,-694.0,-120.0,-1321.0,463.0,3
34,-53.0,-358.0,118.0,-816.0,101.0,-721.0,-168.0,-1421.0,444.0,3
35,-60.0,-387.0,123.0,-894.0,101.0,-739.0,-193.0,-1518.0,466.0,3
36,-59.0,-419.0,136.0,-868.0,75.0,-754.0,-179.0,-1609.0,506.0,3
37,-52.0,-437.0,134.0,-730.0,29.0,-785.0,-158.0,-1696.0,503.0,3
38,-58.0,-450.0,128.0,-540.0,-12.0,-826.0,-189.0,-1742.0,484.0,3
39,-80.0,-452.0,122.0,-378.0,-21.0,-851.0,-273.0,-1783.0,447.0,3
40,-110.0,-453.0,128.0,-305.0,-13.0,-861.0,-369.0,-1801.0,473.0,3
41,-126.0,-444.0,133.0,-328.0,-60.0,-884.0,-426.0,-1783.0,487.0,3
42,-128.0,-435.0,130.0,-397.0,-189.0,-927.0,-446.0,-1733.0,494.0,3
43,-110.0,-423.0,126.0,-446.0,-335.0,-983.0,-396.0,-1680.0,482.0,3
44,-89.0,-409.0,120.0,-450.0,-436.0,-1052.0,-325.0,-1623.0,454.0,3
45,-61.0,-397.0,120.0,-411.0,-481.0,-1121.0,-220.0,-1577.0,445.0,3
46,-32.0,-385.0,117.0,-335.0,-496.0,-1176.0,-110.0,-1526.0,420.0,3
47,-6.0,-383.0,107.0,-235.0,-497.0,-1205.0,-9.0,-1494.0,402.0,3
48,19.0,-373.0,93.0,-132.0,-493.0,-1219.0,95.0,-1462.0,362.0,3
49,41.0,-354.0,85.0,-59.0,-486.0,-1227.0,185.0,-1414.0,318.0,3
50,57.0,-332.0,75.0,-41.0,-496.0,-1234.0,240.0,-1314.0,277.0,3
51,64.0,-309.0,74.0,-74.0,-521.0,-1235.0,285.0,-1219.0,266.0,3
52,68.0,-282.0,80.0,-136.0,-542.0,-1224.0,294.0,-1112.0,278.0,3
53,65.0,-251.0,83.0,-199.0,-549.0,-1211.0,284.0,-983.0,298.0,3
54,56.0,-224.0,92.0,-238.0,-548.0,-1186.0,242.0,-887.0,328.0,3
55,42.0,-196.0,89.0,-272.0,-537.0,-1144.0,194.0,-779.0,341.0,3
56,31.0,-176.0,86.0,-290.0,-541.0,-1091.0,142.0,-697.0,322.0,3
57,16.0,-156.0,77.0,-296.0,-552.0,-1025.0,80.0,-618.0,278.0,3
58,5.0,-150.0,73.0,-291.0,-557.0,-943.0,49.0,-571.0,251.0,3
59,4.0,-142.0,66.0,-268.0,-542.0,-870.0,33.0,-558.0,246.0,3
60,1.0,-140.0,65.0,-213.0,-516.0,-778.0,18.0,-535.0,243.0,3
61,0.0,-136.0,69.0,-128.0,-500.0,-689.0,2.0,-521.0,244.0,3
62,2.0,-128.0,63.0,-23.0,-502.0,-597.0,26.0,-477.0,242.0,3
63,6.0,-126.0,57.0,101.0,-514.0,-497.0,49.0,-469.0,194.0,3
64,20.0,-124.0,31.0,263.0,-526.0,-414.0,98.0,-446.0,127.0,3
65,26.0,-113.0,13.0,428.0,-529.0,-367.0,125.0,-426.0,37.0,3
66,36.0,-97.0,-11.0,564.0,-521.0,-344.0,153.0,-379.0,-57.0,3
67,42.0,-77.0,-35.0,654.0,-496.0,-333.0,166.0,-314.0,-137.0,3
68,47.0,-57.0,-50.0,708.0,-459.0,-318.0,187.0,-237.0,-202.0,3
69,52.0,-36.0,-61.0,740.0,-411.0,-285.0,197.0,-156.0,-258.0,3
70,54.0,-16.0,-63.0,759.0,-338.0,-243.0,205.0,-70.0,-295.0,3
71,55.0,4.0,-64.0,766.0,-237.0,-212.0,209.0,7.0,-292.0,3
72,53.0,19.0,-64.0,767.0,-118.0,-188.0,200.0,77.0,-279.0,3
73,58.0,25.0,-60.0,765.0,9.0,-163.0,206.0,119.0,-253.0,3
74,60.0,34.0,-51.0,757.0,135.0,-145.0,221.0,136.0,-223.0,3
75,59.0,40.0,-36.0,747.0,241.0,-131.0,223.0,156.0,-179.0,3
76,63.0,36.0,-30.0,731.0,324.0,-128.0,240.0,158.0,-148.0,3
77,65.0,38.0,-21.0,713.0,387.0,-129.0,253.0,140.0,-111.0,3
78,72.0,31.0,-13.0,691.0,439.0,-125.0,281.0,121.0,-91.0,3
79,80.0,14.0,-15.0,672.0,487.0,-110.0,312.0,65.0,-82.0,3
80,85.0,0.0,-17.0,661.0,532.0,-83.0,332.0,8.0,-88.0,3
81,79.0,-20.0,-16.0,665.0,578.0,-54.0,316.0,-66.0,-100.0,3
82,65.0,-42.0,-17.0,692.0,612.0,-23.0,267.0,-126.0,-88.0,3
83,47.0,-55.0,-5.0,743.0,620.0,8.0,202.0,-207.0,-35.0,3
84,34.0,-65.0,1.0,814.0,589.0,43.0,148.0,-259.0,-10.0,3
85,23.0,-81.0,8.0,885.0,528.0,81.0,110.0,-307.0,-1.0,3
86,19.0,-97.0,1.0,917.0,459.0,127.0,101.0,-395.0,-16.0,3
87,27.0,-117.0,-17.0,862.0,379.0,166.0,133.0,-509.0,-100.0,3
88,51.0,-149.0,-65.0,659.0,311.0,174.0,210.0,-657.0,-303.0,3
89,81.0,-199.0,-168.0,274.0,352.0,131.0,282.0,-831.0,-614.0,3
90,93.0,-255.0,-256.0,-264.0,597.0,29.0,299.0,-1020.0,-982.0,3
91,97.0,-336.0,-296.0,-847.0,1046.0,-85.0,322.0,-1293.0,-1220.0,3
92,87.0,-449.0,-240.0,-1332.0,1609.0,-213.0,339.0,-1662.0,-1101.0,3
93,20.0,-558.0,-83.0,-1688.0,2098.0,-403.0,204.0,-2111.0,-583.0,3
94,-48.0,-644.0,113.0,-1988.0,2241.0,-718.0,-44.0,-2537.0,379.0,3
95,-58.0,-696.0,270.0,-2154.0,1866.0,-1092.0,-25.0,-2699.0,1000.0,3
96,11.0,-714.0,348.0,-2004.0,1114.0,-1341.0,219.0,-2699.0,1341.0,3
97,79.0,-714.0,320.0,-1431.0,398.0,-1383.0,380.0,-2659.0,1267.0,3
98,101.0,-691.0,237.0,-546.0,88.0,-1272.0,408.0,-2590.0,947.0,3
99,105.0,-652.0,159.0,343.0,200.0,-1118.0,417.0,-2490.0,655.0,3
100,50.0,-594.0,119.0,1035.0,483.0,-933.0,254.0,-2308.0,459.0,3
101,-39.0,-515.0,115.0,1472.0,738.0,-716.0,-88.0,-2065.0,387.0,3
102,-107.0,-443.0,114.0,1645.0,852.0,-506.0,-348.0,-1786.0,415.0,3
103,-142.0,-369.0,129.0,1632.0,801.0,-292.0,-497.0,-1521.0,484.0,3
104,-151.0,-317.0,130.0,1549.0,677.0,-62.0,-542.0,-1307.0,501.0,3
105,-152.0,-270.0,123.0,1423.0,546.0,176.0,-560.0,-1120.0,478.0,3
106,-162.0,-238.0,112.0,1198.0,412.0,419.0,-597.0,-998.0,417.0,3
107,-165.0,-207.0,99.0,818.0,264.0,655.0,-608.0,-921.0,386.0,3
108,-160.0,-195.0,92.0,415.0,108.0,880.0,-592.0,-893.0,348.0,3
109,-154.0,-206.0,84.0,-143.0,-11.0,1082.0,-569.0,-928.0,293.0,3
110,-148.0,-243.0,71.0,-712.0,-85.0,1234.0,-553.0,-1044.0,264.0,3
111,-142.0,-287.0,68.0,-1239.0,-174.0,1314.0,-511.0,-1195.0,249.0,3
112,-136.0,-337.0,92.0,-1661.0,-287.0,1342.0,-492.0,-1368.0,329.0,3
113,-144.0,-389.0,125.0,-1906.0,-433.0,1347.0,-508.0,-1548.0,451.0,3
114,-150.0,-462.0,164.0,-1943.0,-618.0,1319.0,-521.0,-1742.0,579.0,3
115,-141.0,-511.0,188.0,-1786.0,-843.0,1273.0,-501.0,-1932.0,688.0,3
116,-121.0,-548.0,192.0,-1486.0,-1094.0,1227.0,-385.0,-2109.0,746.0,3
117,-86.0,-566.0,169.0,-1123.0,-1332.0,1169.0,-288.0,-2203.0,659.0,3
118,-56.0,-566.0,146.0,-795.0,-1508.0,1095.0,-165.0,-2202.0,559.0,3
119,-35.0,-542.0,118.0,-544.0,-1603.0,1026.0,-92.0,-2127.0,456.0,3
120,-23.0,-507.0,104.0,-376.0,-1642.0,980.0,-44.0,-2001.0,389.0,3
121,-14.0,-465.0,100.0,-268.0,-1644.0,962.0,-18.0,-1836.0,375.0,3
122,-14.0,-422.0,107.0,-180.0,-1620.0,966.0,-36.0,-1687.0,383.0,3
123,-33.0,-393.0,107.0,-98.0,-1581.0,979.0,-82.0,-1569.0,403.0,3
124,-58.0,-366.0,116.0,-37.0,-1538.0,999.0,-172.0,-1456.0,425.0,3
125,-81.0,-347.0,124.0,-24.0,-1514.0,1023.0,-267.0,-1397.0,452.0,3
126,-100.0,-340.0,114.0,-72.0,-1534.0,1036.0,-337.0,-1367.0,435.0,3
127,-110.0,-340.0,95.0,-190.0,-1582.0,1025.0,-399.0,-1382.0,348.0,3
128,-109.0,-350.0,79.0,-347.0,-1629.0,983.0,-388.0,-1410.0,290.0,3
129,-99.0,-361.0,78.0,-492.0,-1656.0,923.0,-366.0,-1437.0,281.0,3
130,-93.0,-371.0,83.0,-552.0,-1660.0,867.0,-334.0,-1455.0,301.0,3
131,-77.0,-371.0,88.0,-490.0,-1647.0,811.0,-267.0,-1443.0,321.0,3
132,-58.0,-369.0,88.0,-339.0,-1639.0,746.0,-199.0,-1419.0,315.0,3
133,-36.0,-336.0,82.0,-132.0,-1636.0,652.0,-114.0,-1290.0,293.0,3
134,-10.0,-300.0,66.0,119.0,-1629.0,554.0,-11.0,-1155.0,241.0,3
135,13.0,-251.0,43.0,371.0,-1617.0,454.0,67.0,-957.0,156.0,3
136,35.0,-198.0,28.0,591.0,-1597.0,367.0,142.0,-761.0,101.0,3
137,47.0,-139.0,13.0,769.0,-1576.0,290.0,201.0,-550.0,16.0,3
138,51.0,-87.0,-5.0,901.0,-1578.0,210.0,231.0,-314.0,-63.0,3
139,48.0,-33.0,-32.0,968.0,-1599.0,127.0,208.0,-143.0,-149.0,3
140,37.0,-8.0,-56.0,950.0,-1626.0,42.0,151.0,-42.0,-237.0,3
141,24.0,14.0,-66.0,855.0,-1625.0,-52.0,98.0,32.0,-293.0,3
142,12.0,21.0,-64.0,729.0,-1599.0,-135.0,36.0,72.0,-295.0,3
143,0.0,12.0,-63.0,605.0,-1552.0,-202.0,-9.0,54.0,-278.0,3
144,-13.0,12.0,-48.0,503.0,-1494.0,-263.0,-54.0,39.0,-226.0,3
145,-29.0,2.0,-41.0,438.0,-1441.0,-309.0,-104.0,4.0,-185.0,3
146,-39.0,-5.0,-35.0,398.0,-1394.0,-333.0,-145.0,-26.0,-170.0,3
147,-48.0,-17.0,-32.0,368.0,-1359.0,-328.0,-179.0,-59.0,-150.0,3
148,-51.0,-25.0,-30.0,346.0,-1326.0,-306.0,-192.0,-106.0,-139.0,3
149,-47.0,-43.0,-38.0,329.0,-1277.0,-284.0,-178.0,-197.0,-172.0,3
150,-37.0,-57.0,-25.0,295.0,-1223.0,-259.0,-149.0,-228.0,-114.0,3
151,-28.0,-64.0,-10.0,293.0,-1169.0,-271.0,-104.0,-251.0,-68.0,3
152,-9.0,-69.0,-2.0,336.0,-1131.0,-305.0,-34.0,-261.0,-35.0,3
153,8.0,-65.0,3.0,405.0,-1110.0,-333.0,41.0,-243.0,-24.0,3
154,25.0,-58.0,8.0,483.0,-1099.0,-353.0,114.0,-224.0,2.0,3
155,45.0,-51.0,14.0,572.0,-1095.0,-357.0,186.0,-180.0,31.0,3
156,58.0,-39.0,22.0,671.0,-1096.0,-362.0,231.0,-136.0,56.0,3
157,59.0,-24.0,16.0,767.0,-1112.0,-362.0,244.0,-88.0,57.0,3
158,59.0,-9.0,10.0,832.0,-1140.0,-344.0,243.0,-53.0,29.0,3
159,60.0,-5.0,-7.0,834.0,-1166.0,-305.0,245.0,-36.0,-54.0,3
160,60.0,-5.0,-22.0,766.0,-1172.0,-258.0,244.0,-53.0,-114.0,3
161,50.0,-14.0,-26.0,646.0,-1156.0,-218.0,204.0,-82.0,-158.0,3
162,21.0,-24.0,-47.0,490.0,-1141.0,-178.0,72.0,-135.0,-216.0,3
163,-24.0,-38.0,-69.0,299.0,-1169.0,-113.0,-89.0,-222.0,-321.0,3
164,-71.0,-72.0,-122.0,89.0,-1265.0,2.0,-239.0,-330.0,-484.0,3
165,-78.0,-107.0,-190.0,-263.0,-1372.0,162.0,-298.0,-470.0,-740.0,3
166,-67.0,-159.0,-260.0,-703.0,-1368.0,348.0,-304.0,-637.0,-1019.0,3
167,-65.0,-241.0,-290.0,-1182.0,-1261.0,552.0,-266.0,-923.0,-1202.0,3
168,-59.0,-340.0,-261.0,-1633.0,-1059.0,752.0,-245.0,-1292.0,-1144.0,3
169,-68.0,-446.0,-167.0,-2003.0,-827.0,983.0,-264.0,-1690.0,-840.0,3
170,-63.0,-544.0,-48.0,-2293.0,-550.0,1234.0,-256.0,-2075.0,-232.0,3
171,-19.0,-625.0,93.0,-2517.0,-294.0,1569.0,6.0,-2471.0,307.0,3
172,19.0,-684.0,219.0,-2625.0,-239.0,1747.0,194.0,-2641.0,823.0,3
173,5.0,-709.0,290.0,-2449.0,-432.0,1694.0,152.0,-2681.0,1104.0,3
174,-49.0,-692.0,274.0,-1853.0,-768.0,1503.0,-62.0,-2569.0,1079.0,3
175,-30.0,-662.0,250.0,-893.0,-1122.0,1342.0,-20.0,-2431.0,961.0,3
176,9.0,-632.0,162.0,253.0,-1420.0,1155.0,97.0,-2368.0,643.0,3
177,37.0,-588.0,62.0,1200.0,-1620.0,1007.0,184.0,-2268.0,252.0,3
178,65.0,-555.0,-4.0,1760.0,-1648.0,896.0,257.0,-2174.0,-18.0,3
179,63.0,-509.0,-27.0,1960.0,-1495.0,750.0,256.0,-2029.0,-122.0,3
180,54.0,-448.0,-3.0,1898.0,-1228.0,553.0,219.0,-1816.0,-45.0,3
181,38.0,-386.0,32.0,1660.0,-972.0,331.0,183.0,-1592.0,121.0,3
182,7.0,-321.0,72.0,1292.0,-791.0,93.0,44.0,-1303.0,268.0,3
183,-20.0,-281.0,99.0,858.0,-675.0,-80.0,-61.0,-1160.0,380.0,3
184,-34.0,-269.0,108.0,432.0,-646.0,-169.0,-98.0,-1133.0,406.0,3
185,-20.0,-293.0,104.0,57.0,-709.0,-211.0,-38.0,-1207.0,355.0,3
186,6.0,-324.0,80.0,-250.0,-782.0,-258.0,52.0,-1313.0,280.0,3
187,24.0,-357.0,68.0,-502.0,-791.0,-318.0,124.0,-1439.0,264.0,3
188,33.0,-383.0,87.0,-699.0,-732.0,-393.0,160.0,-1524.0,311.0,3
189,40.0,-407.0,117.0,-816.0,-653.0,-478.0,178.0,-1581.0,411.0,3
190,42.0,-420.0,134.0,-826.0,-588.0,-577.0,198.0,-1628.0,498.0,3
191,39.0,-426.0,150.0,-757.0,-551.0,-672.0,191.0,-1649.0,543.0,3
192,24.0,-429.0,146.0,-665.0,-526.0,-730.0,154.0,-1678.0,549.0,3
193,13.0,-435.0,139.0,-612.0,-495.0,-757.0,89.0,-1715.0,527.0,3
194,-9.0,-444.0,131.0,-628.0,-468.0,-773.0,-1.0,-1759.0,503.0,3
195,-25.0,-458.0,127.0,-708.0,-459.0,-787.0,-49.0,-1832.0,486.0,3
196,-28.0,-470.0,127.0,-822.0,-490.0,-833.0,-63.0,-1867.0,475.0,3
197,-29.0,-477.0,128.0,-897.0,-544.0,-911.0,-66.0,-1871.0,474.0,3
198,-20.0,-471.0,128.0,-876.0,-575.0,-999.0,-44.0,-1844.0,476.0,3
199,-4.0,-467.0,126.0,-768.0,-584.0,-1071.0,16.0,-1797.0,470.0,3
200,7.0,-448.0,120.0,-605.0,-596.0,-1125.0,68.0,-1752.0,450.0,3
201,20.0,-428.0,110.0,-419.0,-610.0,-1158.0,114.0,-1659.0,414.0,3
202,31.0,-406.0,101.0,-236.0,-605.0,-1169.0,156.0,-1580.0,374.0,3
203,44.0,-376.0,91.0,-93.0,-587.0,-1166.0,195.0,-1492.0,325.0,3
204,50.0,-342.0,83.0,-15.0,-568.0,-1164.0,231.0,-1338.0,293.0,3
205,55.0,-314.0,79.0,-2.0,-558.0,-1170.0,241.0,-1237.0,282.0,3
206,51.0,-286.0,70.0,-46.0,-541.0,-1163.0,238.0,-1139.0,274.0,3
207,50.0,-258.0,78.0,-118.0,-514.0,-1143.0,220.0,-1045.0,275.0,3
208,35.0,-242.0,82.0,-195.0,-499.0,-1116.0,165.0,-962.0,292.0,3
209,18.0,-227.0,83.0,-251.0,-497.0,-1071.0,94.0,-898.0,310.0,3
210,-6.0,-211.0,84.0,-261.0,-497.0,-997.0,1.0,-847.0,307.0,3
211,-26.0,-204.0,85.0,-212.0,-487.0,-907.0,-80.0,-795.0,301.0,3
212,-36.0,-188.0,73.0,-103.0,-477.0,-823.0,-119.0,-747.0,283.0,3
213,-41.0,-177.0,65.0,12.0,-476.0,-728.0,-133.0,-692.0,248.0,3
214,-39.0,-156.0,59.0,141.0,-480.0,-634.0,-143.0,-629.0,196.0,3
215,-38.0,-134.0,47.0,259.0,-493.0,-555.0,-111.0,-524.0,166.0,3
216,-27.0,-104.0,40.0,364.0,-521.0,-477.0,-93.0,-423.0,141.0,3
217,-15.0,-81.0,29.0,453.0,-549.0,-396.0,-44.0,-331.0,100.0,3
218,2.0,-61.0,12.0,519.0,-572.0,-312.0,11.0,-242.0,26.0,3
219,20.0,-44.0,-11.0,558.0,-577.0,-232.0,83.0,-180.0,-61.0,3
220,31.0,-29.0,-38.0,565.0,-564.0,-144.0,137.0,-129.0,-146.0,3
221,49.0,-26.0,-49.0,549.0,-532.0,-59.0,185.0,-112.0,-213.0,3
222,55.0,-27.0,-55.0,524.0,-494.0,21.0,204.0,-113.0,-246.0,3
223,64.0,-37.0,-47.0,487.0,-442.0,93.0,243.0,-130.0,-225.0,3
224,66.0,-42.0,-41.0,476.0,-383.0,150.0,264.0,-145.0,-194.0,3
225,69.0,-48.0,-32.0,510.0,-337.0,202.0,271.0,-162.0,-156.0,3
226,67.0,-50.0,-27.0,581.0,-284.0,247.0,273.0,-176.0,-135.0,3
227,63.0,-51.0,-26.0,681.0,-243.0,275.0,257.0,-174.0,-132.0,3
228,69.0,-41.0,-20.0,799.0,-205.0,299.0,243.0,-151.0,-120.0,3
229,59.0,-34.0,-21.0,927.0,-159.0,317.0,231.0,-112.0,-107.0,3
230,57.0,-19.0,-16.0,1059.0,-102.0,328.0,223.0,-49.0,-86.0,3
231,58.0,0.0,-10.0,1189.0,-48.0,342.0,218.0,8.0,-74.0,3
232,56.0,11.0,-13.0,1293.0,4.0,346.0,208.0,60.0,-68.0,3
233,56.0,22.0,-15.0,1358.0,54.0,348.0,214.0,92.0,-77.0,3
234,59.0,29.0,-22.0,1369.0,97.0,354.0,223.0,95.0,-106.0,3
235,60.0,21.0,-30.0,1312.0,137.0,372.0,234.0,63.0,-152.0,3
236,58.0,3.0,-42.0,1188.0,174.0,394.0,231.0,8.0,-201.0,3
237,51.0,-19.0,-50.0,1041.0,218.0,422.0,199.0,-103.0,-217.0,3
238,54.0,-59.0,-60.0,918.0,254.0,458.0,209.0,-225.0,-264.0,3
239,64.0,-98.0,-98.0,803.0,254.0,491.0,274.0,-388.0,-391.0,3
240,86.0,-142.0,-154.0,620.0,226.0,484.0,326.0,-575.0,-606.0,3
241,99.0,-186.0,-220.0,318.0,245.0,424.0,367.0,-749.0,-865.0,3
242,98.0,-239.0,-305.0,-79.0,392.0,337.0,358.0,-936.0,-1214.0,3
243,99.0,-317.0,-323.0,-491.0,705.0,234.0,338.0,-1191.0,-1362.0,3
244,88.0,-403.0,-235.0,-779.0,1182.0,103.0,318.0,-1498.0,-1103.0,3
245,56.0,-495.0,-51.0,-879.0,1671.0,-78.0,272.0,-1851.0,-423.0,3
246,1.0,-551.0,160.0,-867.0,1873.0,-324.0,149.0,-2130.0,407.0,3
247,-45.0,-570.0,304.0,-811.0,1621.0,-618.0,-16.0,-2232.0,1183.0,3
248,-14.0,-552.0,370.0,-693.0,1076.0,-822.0,88.0,-2133.0,1466.0,3
249,55.0,-525.0,351.0,-511.0,511.0,-885.0,317.0,-2042.0,1390.0,3
250,91.0,-498.0,279.0,-287.0,137.0,-804.0,408.0,-1907.0,1107.0,3
251,84.0,-482.0,192.0,4.0,-16.0,-635.0,378.0,-1840.0,759.0,3
252,72.0,-474.0,97.0,337.0,-15.0,-444.0,320.0,-1797.0,377.0,3
253,48.0,-455.0,18.0,660.0,67.0,-269.0,221.0,-1759.0,63.0,3
254,-18.0,-431.0,-28.0,910.0,213.0,-124.0,-54.0,-1704.0,-130.0,3
255,-102.0,-384.0,5.0,986.0,442.0,-28.0,-370.0,-1550.0,-31.0,3
256,-153.0,-337.0,71.0,904.0,606.0,57.0,-554.0,-1374.0,223.0,3
257,-184.0,-306.0,116.0,771.0,612.0,160.0,-665.0,-1257.0,427.0,3
258,-202.0,-279.0,139.0,608.0,480.0,298.0,-739.0,-1181.0,517.0,3
259,-225.0,-259.0,127.0,357.0,270.0,478.0,-831.0,-1105.0,489.0,3
260,-221.0,-255.0,108.0,5.0,58.0,715.0,-823.0,-1103.0,399.0,3
261,-187.0,-278.0,80.0,-410.0,-96.0,974.0,-686.0,-1178.0,298.0,3
262,-159.0,-306.0,64.0,-824.0,-186.0,1177.0,-576.0,-1277.0,225.0,3
263,-139.0,-356.0,52.0,-1213.0,-250.0,1309.0,-518.0,-1425.0,192.0,3
264,-130.0,-402.0,60.0,-1537.0,-304.0,1372.0,-485.0,-1576.0,195.0,3
265,-126.0,-447.0,77.0,-1750.0,-367.0,1391.0,-441.0,-1723.0,261.0,3
266,-116.0,-493.0,113.0,-1825.0,-470.0,1369.0,-396.0,-1889.0,384.0,3
267,-95.0,-534.0,151.0,-1758.0,-610.0,1315.0,-321.0,-2054.0,523.0,3
268,-75.0,-574.0,165.0,-1572.0,-772.0,1231.0,-244.0,-2198.0,619.0,3
269,-50.0,-590.0,166.0,-1338.0,-932.0,1124.0,-149.0,-2290.0,630.0,3
270,-20.0,-589.0,155.0,-1102.0,-1073.0,1020.0,-11.0,-2294.0,591.0,3
271,7.0,-577.0,141.0,-883.0,-1170.0,941.0,93.0,-2227.0,537.0,3
272,28.0,-544.0,123.0,-674.0,-1211.0,896.0,153.0,-2115.0,467.0,3
273,42.0,-507.0,117.0,-464.0,-1199.0,880.0,209.0,-1974.0,420.0,3
274,42.0,-464.0,107.0,-254.0,-1148.0,880.0,201.0,-1820.0,387.0,3
275,39.0,-432.0,107.0,-60.0,-1061.0,899.0,172.0,-1676.0,384.0,3
276,19.0,-396.0,99.0,114.0,-947.0,896.0,117.0,-1549.0,372.0,3
277,-13.0,-364.0,95.0,207.0,-850.0,889.0,-9.0,-1451.0,352.0,3
278,-44.0,-346.0,99.0,185.0,-794.0,890.0,-116.0,-1380.0,367.0,3
279,-64.0,-332.0,99.0,86.0,-801.0,863.0,-203.0,-1355.0,363.0,3
280,-73.0,-333.0,92.0,-79.0,-859.0,811.0,-248.0,-1343.0,346.0,3
281,-76.0,-339.0,93.0,-227.0,-922.0,757.0,-271.0,-1353.0,340.0,3
282,-71.0,-348.0,103.0,-385.0,-948.0,716.0,-258.0,-1386.0,387.0,3
283,-60.0,-356.0,113.0,-462.0,-938.0,673.0,-209.0,-1395.0,423.0,3
284,-49.0,-347.0,119.0,-426.0,-904.0,623.0,-155.0,-1331.0,446.0,3
285,-28.0,-320.0,111.0,-273.0,-871.0,555.0,-77.0,-1237.0,411.0,3
286,-5.0,-279.0,96.0,-69.0,-854.0,501.0,7.0,-1069.0,346.0,3
287,19.0,-229.0,79.0,159.0,-838.0,441.0,94.0,-874.0,279.0,3
288,43.0,-159.0,58.0,391.0,-815.0,375.0,170.0,-661.0,215.0,3
289,49.0,-91.0,45.0,596.0,-792.0,292.0,217.0,-404.0,167.0,3
290,46.0,-34.0,31.0,744.0,-811.0,213.0,207.0,-194.0,114.0,3
291,36.0,9.0,19.0,808.0,-854.0,124.0,173.0,22.0,57.0,3
292,25.0,48.0,5.0,802.0,-895.0,43.0,110.0,156.0,7.0,3
293,11.0,65.0,-10.0,733.0,-915.0,-24.0,41.0,232.0,-41.0,3
294,-3.0,74.0,-15.0,596.0,-911.0,-82.0,-23.0,250.0,-87.0,3
295,-23.0,63.0,-21.0,405.0,-888.0,-142.0,-95.0,203.0,-91.0,3
296,-37.0,43.0,-20.0,202.0,-850.0,-198.0,-138.0,148.0,-119.0,3
297,-53.0,19.0,-17.0,49.0,-808.0,-248.0,-206.0,69.0,-108.0,3
298,-63.0,-6.0,-17.0,-25.0,-766.0,-267.0,-249.0,-19.0,-97.0,3
299,-71.0,-33.0,-13.0,-25.0,-734.0,-255.0,-273.0,-116.0,-81.0,3
300,-75.0,-57.0,-17.0,40.0,-707.0,-239.0,-310.0,-204.0,-79.0,3
301,-77.0,-76.0,-15.0,128.0,-684.0,-231.0,-313.0,-296.0,-107.0,3
302,-74.0,-85.0,-9.0,208.0,-666.0,-207.0,-282.0,-342.0,-80.0,3
303,-61.0,-95.0,-3.0,310.0,-659.0,-217.0,-231.0,-370.0,-45.0,3
304,-44.0,-96.0,-3.0,413.0,-654.0,-264.0,-158.0,-369.0,-39.0,3
305,-19.0,-85.0,2.0,481.0,-652.0,-319.0,-76.0,-336.0,-25.0,3
306,2.0,-77.0,13.0,524.0,-646.0,-360.0,17.0,-294.0,33.0,3
307,21.0,-69.0,29.0,579.0,-635.0,-389.0,88.0,-263.0,96.0,3
308,28.0,-63.0,39.0,666.0,-628.0,-410.0,131.0,-230.0,136.0,3
309,32.0,-58.0,35.0,764.0,-643.0,-419.0,146.0,-204.0,136.0,3
310,41.0,-50.0,23.0,842.0,-673.0,-410.0,169.0,-197.0,96.0,3
311,38.0,-50.0,12.0,889.0,-697.0,-385.0,155.0,-197.0,20.0,3
312,9.0,-50.0,-22.0,887.0,-715.0,-344.0,62.0,-217.0,-101.0,3
313,-49.0,-65.0,-70.0,790.0,-770.0,-268.0,-97.0,-299.0,-324.0,3
314,-76.0,-88.0,-147.0,557.0,-905.0,-144.0,-251.0,-411.0,-586.0,3
315,-84.0,-121.0,-235.0,159.0,-1068.0,2.0,-326.0,-549.0,-942.0,3
316,-72.0,-169.0,-322.0,-357.0,-1133.0,168.0,-300.0,-717.0,-1303.0,3
317,-54.0,-253.0,-370.0,-880.0,-1083.0,368.0,-209.0,-993.0,-1542.0,3
318,-25.0,-360.0,-352.0,-1285.0,-989.0,609.0,-84.0,-1375.0,-1521.0,3
319,-11.0,-473.0,-281.0,-1501.0,-845.0,885.0,-38.0,-1798.0,-1247.0,3
320,1.0,-580.0,-178.0,-1573.0,-574.0,1224.0,2.0,-2217.0,-841.0,3
321,21.0,-649.0,-34.0,-1606.0,-237.0,1530.0,114.0,-2512.0,-299.0,3
322,29.0,-685.0,126.0,-1598.0,-15.0,1633.0,175.0,-2664.0,322.0,3
323,-28.0,-649.0,270.0,-1434.0,-22.0,1496.0,54.0,-2531.0,924.0,3
324,-106.0,-563.0,305.0,-1017.0,-276.0,1249.0,-247.0,-2126.0,1192.0,3
325,-129.0,-485.0,262.0,-432.0,-709.0,1072.0,-403.0,-1832.0,992.0,3
326,-92.0,-433.0,151.0,194.0,-1159.0,962.0,-285.0,-1623.0,590.0,3
327,-33.0,-404.0,46.0,743.0,-1474.0,900.0,-80.0,-1557.0,173.0,3
328,58.0,-407.0,-30.0,1071.0,-1556.0,877.0,220.0,-1590.0,-147.0,3
329,122.0,-402.0,-64.0,1119.0,-1365.0,788.0,442.0,-1601.0,-282.0,3
330,119.0,-377.0,-40.0,925.0,-997.0,550.0,439.0,-1526.0,-194.0,3
331,84.0,-350.0,11.0,580.0,-636.0,251.0,344.0,-1402.0,28.0,3
332,46.0,-318.0,72.0,238.0,-406.0,-22.0,220.0,-1294.0,244.0,3
333,25.0,-308.0,110.0,-25.0,-330.0,-224.0,139.0,-1237.0,396.0,3
334,10.0,-312.0,120.0,-238.0,-389.0,-371.0,100.0,-1249.0,457.0,3
335,19.0,-332.0,108.0,-436.0,-501.0,-485.0,87.0,-1337.0,384.0,3
336,23.0,-357.0,76.0,-626.0,-565.0,-582.0,124.0,-1446.0,282.0,3
337,25.0,-384.0,58.0,-800.0,-543.0,-672.0,110.0,-1536.0,201.0,3
338,15.0,-412.0,51.0,-919.0,-463.0,-747.0,100.0,-1631.0,164.0,3
339,20.0,-441.0,58.0,-1027.0,-376.0,-801.0,104.0,-1710.0,190.0,3
340,25.0,-462.0,69.0,-1063.0,-316.0,-838.0,130.0,-1786.0,241.0,3
341,30.0,-480.0,83.0,-1015.0,-268.0,-864.0,147.0,-1849.0,297.0,3
342,24.0,-491.0,99.0,-903.0,-185.0,-889.0,133.0,-1905.0,354.0,3
343,4.0,-500.0,112.0,-770.0,-81.0,-880.0,65.0,-1949.0,398.0,3
344,-11.0,-509.0,124.0,-665.0,-1.0,-842.0,12.0,-2003.0,451.0,3
345,-33.0,-517.0,132.0,-588.0,8.0,-784.0,-52.0,-2029.0,489.0,3
346,-32.0,-522.0,146.0,-525.0,-51.0,-733.0,-77.0,-2044.0,546.0,3
347,-31.0,-512.0,152.0,-430.0,-131.0,-710.0,-70.0,-1997.0,566.0,3
348,-25.0,-491.0,149.0,-275.0,-193.0,-728.0,-43.0,-1916.0,564.0,3
349,-5.0,-465.0,141.0,-80.0,-241.0,-772.0,25.0,-1810.0,530.0,3
350,14.0,-440.0,125.0,118.0,-294.0,-832.0,103.0,-1708.0,479.0,3
351,35.0,-407.0,101.0,279.0,-346.0,-891.0,173.0,-1589.0,389.0,3
352,54.0,-373.0,101.0,380.0,-383.0,-950.0,239.0,-1456.0,373.0,3
353,64.0,-348.0,90.0,477.0,-391.0,-1006.0,270.0,-1368.0,334.0,3
354,65.0,-315.0,66.0,538.0,-367.0,-1056.0,295.0,-1265.0,256.0,3
355,63.0,-283.0,55.0,490.0,-349.0,-1124.0,271.0,-1148.0,194.0,3
356,46.0,-258.0,39.0,338.0,-336.0,-1192.0,224.0,-1046.0,152.0,3
357,33.0,-226.0,40.0,122.0,-321.0,-1231.0,169.0,-912.0,147.0,3
358,14.0,-202.0,51.0,-102.0,-308.0,-1238.0,71.0,-828.0,174.0,3
359,-7.0,-188.0,58.0,-292.0,-295.0,-1213.0,-14.0,-753.0,214.0,3
360,-32.0,-167.0,70.0,-436.0,-288.0,-1166.0,-112.0,-680.0,256.0,3
361,-58.0,-149.0,85.0,-540.0,-302.0,-1090.0,-219.0,-594.0,307.0,3
362,-76.0,-135.0,96.0,-540.0,-308.0,-978.0,-296.0,-530.0,342.0,3
363,-92.0,-122.0,93.0,-408.0,-270.0,-865.0,-349.0,-477.0,347.0,3
364,-97.0,-107.0,91.0,-204.0,-208.0,-775.0,-367.0,-423.0,343.0,3
365,-92.0,-87.0,83.0,-10.0,-188.0,-698.0,-355.0,-369.0,307.0,3
366,-74.0,-77.0,63.0,105.0,-244.0,-606.0,-298.0,-325.0,247.0,3
367,-49.0,-57.0,41.0,137.0,-350.0,-501.0,-195.0,-256.0,163.0,3
368,-13.0,-39.0,10.0,123.0,-456.0,-412.0,-66.0,-168.0,33.0,3
369,16.0,-29.0,-9.0,96.0,-518.0,-339.0,74.0,-109.0,-53.0,3
370,44.0,-21.0,-23.0,92.0,-523.0,-246.0,175.0,-70.0,-119.0,3
371,64.0,-15.0,-39.0,104.0,-481.0,-148.0,258.0,-57.0,-175.0,3
372,78.0,-16.0,-44.0,109.0,-421.0,-77.0,300.0,-55.0,-188.0,3
373,82.0,-22.0,-50.0,99.0,-356.0,-9.0,323.0,-91.0,-220.0,3
374,100.0,-39.0,-40.0,50.0,-280.0,75.0,374.0,-145.0,-190.0,3
375,105.0,-58.0,-32.0,4.0,-191.0,149.0,401.0,-210.0,-146.0,3
376,103.0,-78.0,-27.0,4.0,-110.0,202.0,410.0,-281.0,-127.0,3
377,105.0,-101.0,-18.0,50.0,-48.0,247.0,415.0,-363.0,-106.0,3
378,104.0,-112.0,-10.0,152.0,-11.0,281.0,415.0,-406.0,-76.0,3
379,95.0,-117.0,0.0,329.0,12.0,309.0,400.0,-401.0,-30.0,3
380,90.0,-105.0,2.0,596.0,30.0,337.0,348.0,-353.0,-5.0,3
381,76.0,-81.0,11.0,921.0,55.0,370.0,306.0,-274.0,9.0,3
382,69.0,-59.0,6.0,1247.0,79.0,405.0,268.0,-170.0,3.0,3
383,64.0,-27.0,2.0,1521.0,110.0,436.0,244.0,-77.0,-5.0,3
384,62.0,1.0,-2.0,1709.0,153.0,460.0,232.0,13.0,-33.0,3
385,60.0,21.0,-18.0,1795.0,217.0,483.0,226.0,79.0,-94.0,3
386,62.0,28.0,-31.0,1763.0,303.0,503.0,225.0,92.0,-162.0,3
387,56.0,23.0,-48.0,1623.0,408.0,506.0,219.0,67.0,-212.0,3
388,60.0,1.0,-61.0,1420.0,509.0,507.0,230.0,-9.0,-255.0,3
389,73.0,-43.0,-95.0,1187.0,585.0,521.0,272.0,-154.0,-359.0,3
390,100.0,-91.0,-150.0,885.0,634.0,522.0,367.0,-410.0,-608.0,3
391,134.0,-146.0,-219.0,458.0,683.0,465.0,514.0,-618.0,-884.0,3
392,156.0,-200.0,-323.0,-93.0,801.0,335.0,576.0,-846.0,-1305.0,3
393,155.0,-286.0,-392.0,-710.0,1071.0,158.0,565.0,-1116.0,-1613.0,3
394,151.0,-390.0,-360.0,-1168.0,1532.0,-19.0,555.0,-1466.0,-1564.0,3
395,128.0,-514.0,-209.0,-1286.0,2033.0,-184.0,528.0,-1911.0,-1001.0,3
396,61.0,-609.0,27.0,-1180.0,2264.0,-418.0,379.0,-2307.0,-82.0,3
397,-9.0,-647.0,236.0,-956.0,1960.0,-751.0,170.0,-2496.0,783.0,3
398,2.0,-641.0,351.0,-682.0,1230.0,-1012.0,148.0,-2489.0,1319.0,3
399,77.0,-594.0,364.0,-346.0,649.0,-1080.0,349.0,-2336.0,1457.0,3
400,97.0,-543.0,293.0,-34.0,286.0,-1010.0,401.0,-2150.0,1222.0,3
401,82.0,-483.0,215.0,194.0,363.0,-921.0,339.0,-1865.0,831.0,3
402,40.0,-452.0,124.0,374.0,573.0,-777.0,179.0,-1730.0,458.0,3
403,-25.0,-427.0,20.0,566.0,689.0,-568.0,-65.0,-1670.0,47.0,3
404,-105.0,-427.0,-56.0,735.0,723.0,-319.0,-394.0,-1698.0,-246.0,3
405,-193.0,-406.0,-44.0,721.0,730.0,-139.0,-726.0,-1619.0,-219.0,3
406,-228.0,-377.0,12.0,571.0,683.0,23.0,-854.0,-1525.0,20.0,3
407,-246.0,-366.0,47.0,443.0,595.0,189.0,-920.0,-1476.0,156.0,3
408,-235.0,-367.0,58.0,338.0,505.0,379.0,-884.0,-1485.0,197.0,3
409,-220.0,-365.0,42.0,186.0,399.0,591.0,-841.0,-1501.0,148.0,3
410,-214.0,-372.0,42.0,-66.0,272.0,813.0,-799.0,-1524.0,142.0,3
411,-191.0,-384.0,49.0,-394.0,133.0,1024.0,-715.0,-1577.0,163.0,3
412,-166.0,-401.0,58.0,-736.0,-9.0,1193.0,-608.0,-1632.0,217.0,3
413,-140.0,-418.0,67.0,-1019.0,-139.0,1308.0,-515.0,-1677.0,248.0,3
414,-127.0,-436.0,74.0,-1208.0,-237.0,1380.0,-452.0,-1720.0,257.0,3
415,-107.0,-448.0,76.0,-1299.0,-322.0,1408.0,-367.0,-1755.0,272.0,3
416,-85.0,-457.0,83.0,-1274.0,-418.0,1398.0,-282.0,-1782.0,284.0,3
417,-102.0,-470.0,75.0,-1134.0,-515.0,1365.0,-432.0,-1800.0,266.0,3
418,-17.0,-497.0,94.0,-920.0,-595.0,1346.0,-21.0,-1920.0,332.0,3
419,4.0,-491.0,84.0,-707.0,-734.0,1226.0,49.0,-1893.0,309.0,3
420,21.0,-481.0,87.0,-496.0,-822.0,1113.0,115.0,-1872.0,305.0,3
421,54.0,-458.0,82.0,-322.0,-858.0,1049.0,237.0,-1827.0,304.0,3
422,67.0,-446.0,84.0,-200.0,-884.0,999.0,297.0,-1745.0,309.0,3
423,77.0,-415.0,90.0,-104.0,-891.0,965.0,336.0,-1615.0,321.0,3
424,73.0,-387.0,91.0,-9.0,-867.0,944.0,327.0,-1520.0,335.0,3
425,66.0,-363.0,93.0,68.0,-812.0,947.0,300.0,-1416.0,352.0,3
426,53.0,-338.0,98.0,118.0,-746.0,954.0,231.0,-1319.0,364.0,3
427,22.0,-321.0,100.0,149.0,-667.0,962.0,119.0,-1263.0,366.0,3
428,-7.0,-315.0,101.0,156.0,-592.0,973.0,2.0,-1251.0,372.0,3
429,-30.0,-322.0,98.0,117.0,-548.0,974.0,-95.0,-1277.0,355.0,3
430,-46.0,-333.0,97.0,28.0,-546.0,949.0,-154.0,-1327.0,339.0,3
431,-60.0,-339.0,92.0,-66.0,-565.0,908.0,-209.0,-1350.0,333.0,3
432,-62.0,-355.0,87.0,-108.0,-575.0,883.0,-210.0,-1401.0,316.0,3
433,-61.0,-360.0,88.0,-99.0,-573.0,865.0,-201.0,-1402.0,321.0,3
434,-50.0,-348.0,92.0,-20.0,-562.0,848.0,-163.0,-1331.0,334.0,3
435,-41.0,-326.0,91.0,113.0,-562.0,838.0,-132.0,-1241.0,313.0,3
436,-32.0,-282.0,69.0,280.0,-588.0,787.0,-94.0,-1072.0,248.0,3
437,-20.0,-223.0,57.0,464.0,-619.0,706.0,-30.0,-835.0,195.0,3
438,8.0,-140.0,32.0,626.0,-649.0,635.0,37.0,-590.0,114.0,3
439,28.0,-76.0,17.0,729.0,-641.0,556.0,109.0,-351.0,43.0,3
440,40.0,-16.0,4.0,767.0,-594.0,464.0,149.0,-113.0,8.0,3
441,40.0,31.0,4.0,746.0,-541.0,378.0,152.0,79.0,0.0,3
442,37.0,62.0,4.0,661.0,-511.0,292.0,156.0,199.0,0.0,3
443,27.0,78.0,8.0,531.0,-517.0,211.0,110.0,274.0,14.0,3
444,6.0,80.0,8.0,385.0,-542.0,136.0,44.0,282.0,11.0,3
445,-7.0,67.0,6.0,270.0,-559.0,61.0,-33.0,257.0,4.0,3
446,-26.0,48.0,1.0,209.0,-568.0,2.0,-104.0,175.0,-10.0,3
447,-42.0,16.0,-3.0,189.0,-568.0,-44.0,-156.0,63.0,-39.0,3
448,-53.0,-7.0,-2.0,194.0,-562.0,-79.0,-205.0,-41.0,-48.0,3
449,-62.0,-32.0,-5.0,222.0,-543.0,-95.0,-247.0,-122.0,-49.0,3
450,-67.0,-54.0,-11.0,276.0,-509.0,-91.0,-262.0,-192.0,-72.0,3
451,-74.0,-66.0,-14.0,337.0,-462.0,-74.0,-276.0,-261.0,-67.0,3
452,-65.0,-77.0,-2.0,377.0,-412.0,-53.0,-258.0,-294.0,-48.0,3
453,-69.0,-77.0,1.0,433.0,-388.0,-82.0,-241.0,-309.0,-19.0,3
454,-51.0,-77.0,7.0,493.0,-383.0,-122.0,-185.0,-308.0,2.0,3
455,-26.0,-73.0,7.0,546.0,-404.0,-159.0,-93.0,-290.0,15.0,3
456,-1.0,-67.0,21.0,604.0,-435.0,-187.0,24.0,-255.0,58.0,3
457,18.0,-64.0,30.0,687.0,-464.0,-203.0,93.0,-236.0,99.0,3
458,26.0,-59.0,35.0,799.0,-490.0,-223.0,129.0,-220.0,117.0,3
459,29.0,-55.0,29.0,909.0,-523.0,-236.0,135.0,-210.0,99.0,3
460,34.0,-58.0,18.0,997.0,-562.0,-241.0,140.0,-215.0,57.0,3
461,28.0,-57.0,2.0,1049.0,-602.0,-235.0,125.0,-221.0,-15.0,3
462,0.0,-63.0,-37.0,1058.0,-636.0,-208.0,40.0,-268.0,-130.0,3
463,-42.0,-73.0,-94.0,976.0,-684.0,-151.0,-112.0,-338.0,-317.0,3
464,-81.0,-104.0,-157.0,747.0,-778.0,-48.0,-271.0,-448.0,-590.0,3
465,-95.0,-141.0,-237.0,352.0,-874.0,92.0,-382.0,-590.0,-920.0,3
466,-99.0,-200.0,-320.0,-153.0,-876.0,267.0,-391.0,-791.0,-1263.0,3
467,-75.0,-299.0,-339.0,-652.0,-821.0,472.0,-260.0,-1199.0,-1441.0,3
468,-17.0,-408.0,-285.0,-1015.0,-771.0,703.0,-57.0,-1591.0,-1231.0,3
469,7.0,-509.0,-192.0,-1179.0,-659.0,933.0,22.0,-1983.0,-859.0,3
470,32.0,-586.0,-77.0,-1262.0,-366.0,1210.0,123.0,-2317.0,-403.0,3
471,58.0,-643.0,60.0,-1408.0,35.0,1467.0,250.0,-2526.0,157.0,3
472,42.0,-667.0,192.0,-1536.0,323.0,1527.0,242.0,-2589.0,683.0,3
473,-26.0,-632.0,289.0,-1479.0,338.0,1395.0,43.0,-2434.0,1080.0,3
474,-80.0,-586.0,283.0,-1106.0,87.0,1212.0,-185.0,-2237.0,1106.0,3
475,-62.0,-553.0,218.0,-484.0,-319.0,1087.0,-159.0,-2068.0,875.0,3
476,-5.0,-518.0,126.0,253.0,-708.0,966.0,0.0,-1968.0,519.0,3
477,63.0,-489.0,45.0,923.0,-896.0,840.0,226.0,-1874.0,192.0,3
478,125.0,-462.0,0.0,1366.0,-833.0,744.0,500.0,-1782.0,-30.0,3
479,153.0,-428.0,-5.0,1528.0,-586.0,593.0,585.0,-1687.0,-35.0,3
480,133.0,-380.0,20.0,1417.0,-279.0,347.0,521.0,-1519.0,70.0,3
481,118.0,-328.0,59.0,1153.0,-7.0,91.0,456.0,-1322.0,210.0,3
482,89.0,-292.0,87.0,847.0,175.0,-130.0,373.0,-1195.0,323.0,3
483,65.0,-269.0,97.0,522.0,242.0,-298.0,292.0,-1119.0,365.0,3
484,46.0,-271.0,89.0,169.0,218.0,-427.0,221.0,-1130.0,330.0,3
485,42.0,-291.0,67.0,-199.0,157.0,-531.0,175.0,-1199.0,247.0,3
486,29.0,-321.0,42.0,-548.0,111.0,-625.0,153.0,-1291.0,154.0,3
487,27.0,-350.0,29.0,-831.0,97.0,-706.0,140.0,-1397.0,104.0,3
488,18.0,-386.0,36.0,-1016.0,121.0,-776.0,109.0,-1490.0,118.0,3
489,1.0,-407.0,59.0,-1097.0,188.0,-831.0,41.0,-1584.0,192.0,3
490,-14.0,-423.0,86.0,-1094.0,287.0,-893.0,-22.0,-1640.0,289.0,3
491,-39.0,-433.0,106.0,-1039.0,388.0,-954.0,-108.0,-1698.0,389.0,3
492,-59.0,-449.0,127.0,-963.0,462.0,-982.0,-191.0,-1753.0,464.0,3
493,-74.0,-473.0,134.0,-899.0,488.0,-977.0,-242.0,-1848.0,510.0,3
494,-91.0,-490.0,146.0,-861.0,459.0,-958.0,-300.0,-1938.0,550.0,3
495,-106.0,-507.0,150.0,-822.0,385.0,-948.0,-355.0,-2002.0,572.0,3
496,-96.0,-514.0,155.0,-773.0,285.0,-943.0,-331.0,-2029.0,581.0,3
497,-74.0,-516.0,149.0,-698.0,174.0,-958.0,-248.0,-2021.0,585.0,3
498,-48.0,-506.0,151.0,-563.0,73.0,-993.0,-151.0,-1983.0,577.0,3
499,-21.0,-484.0,138.0,-373.0,5.0,-1046.0,-56.0,-1890.0,518.0,3
500,3.0,-459.0,128.0,-171.0,-38.0,-1094.0,80.0,-1781.0,477.0,3
501,24.0,-435.0,116.0,9.0,-65.0,-1128.0,144.0,-1683.0,431.0,3
502,39.0,-406.0,107.0,142.0,-76.0,-1150.0,202.0,-1583.0,394.0,3
503,48.0,-381.0,103.0,213.0,-81.0,-1179.0,231.0,-1492.0,390.0,3
504,57.0,-354.0,95.0,239.0,-73.0,-1213.0,263.0,-1399.0,350.0,3
505,62.0,-320.0,80.0,180.0,-65.0,-1251.0,275.0,-1287.0,298.0,3
506,66.0,-284.0,76.0,45.0,-53.0,-1295.0,261.0,-1160.0,287.0,3
507,49.0,-257.0,80.0,-111.0,-37.0,-1331.0,220.0,-1037.0,297.0,3
508,31.0,-228.0,87.0,-246.0,-29.0,-1335.0,167.0,-917.0,322.0,3
509,13.0,-207.0,96.0,-343.0,-36.0,-1304.0,89.0,-825.0,349.0,3
510,-1.0,-188.0,103.0,-383.0,-60.0,-1254.0,15.0,-741.0,395.0,3
511,-30.0,-162.0,107.0,-378.0,-92.0,-1189.0,-103.0,-611.0,400.0,3
512,-44.0,-140.0,110.0,-327.0,-122.0,-1093.0,-165.0,-515.0,405.0,3
513,-63.0,-124.0,100.0,-194.0,-134.0,-978.0,-231.0,-464.0,375.0,3
514,-75.0,-103.0,86.0,-16.0,-134.0,-867.0,-279.0,-416.0,327.0,3
515,-77.0,-86.0,70.0,139.0,-137.0,-790.0,-286.0,-355.0,267.0,3
516,-68.0,-65.0,56.0,221.0,-176.0,-703.0,-256.0,-280.0,199.0,3
517,-52.0,-46.0,32.0,223.0,-252.0,-602.0,-203.0,-207.0,128.0,3
518,-28.0,-25.0,16.0,186.0,-326.0,-479.0,-120.0,-133.0,57.0,3
519,-4.0,-11.0,1.0,142.0,-358.0,-346.0,-33.0,-79.0,0.0,3
520,18.0,-11.0,-4.0,107.0,-337.0,-223.0,56.0,-57.0,-36.0,3
521,37.0,-12.0,-9.0,75.0,-288.0,-111.0,137.0,-58.0,-62.0,3
522,52.0,-17.0,-8.0,46.0,-223.0,-6.0,215.0,-79.0,-64.0,3
523,65.0,-28.0,-4.0,28.0,-163.0,86.0,260.0,-98.0,-41.0,3
524,64.0,-37.0,-5.0,29.0,-106.0,154.0,257.0,-148.0,-59.0,3
525,77.0,-59.0,-1.0,53.0,-61.0,219.0,302.0,-221.0,-34.0,3
526,82.0,-73.0,0.0,109.0,-23.0,270.0,331.0,-265.0,-28.0,3
527,80.0,-80.0,4.0,196.0,7.0,306.0,336.0,-301.0,-33.0,3
528,83.0,-82.0,-1.0,296.0,30.0,335.0,324.0,-298.0,-39.0,3
529,73.0,-73.0,-1.0,402.0,63.0,358.0,300.0,-278.0,-21.0,3
530,65.0,-62.0,5.0,523.0,120.0,381.0,258.0,-222.0,0.0,3
531,56.0,-47.0,10.0,666.0,194.0,411.0,233.0,-173.0,14.0,3
532,47.0,-37.0,5.0,814.0,273.0,438.0,187.0,-123.0,8.0,3
533,40.0,-27.0,4.0,948.0,347.0,463.0,144.0,-91.0,-13.0,3
534,31.0,-15.0,-4.0,1052.0,416.0,479.0,124.0,-58.0,-45.0,3
535,32.0,-10.0,-16.0,1118.0,478.0,487.0,122.0,-44.0,-79.0,3
536,35.0,-8.0,-26.0,1139.0,536.0,489.0,142.0,-30.0,-120.0,3
537,40.0,-5.0,-43.0,1122.0,581.0,482.0,161.0,-49.0,-180.0,3
538,49.0,-17.0,-51.0,1058.0,622.0,489.0,205.0,-90.0,-237.0,3
539,72.0,-42.0,-76.0,961.0,652.0,498.0,282.0,-162.0,-315.0,3
540,99.0,-72.0,-117.0,822.0,656.0,494.0,377.0,-279.0,-456.0,3
541,129.0,-110.0,-173.0,593.0,637.0,450.0,488.0,-429.0,-667.0,3
542,143.0,-159.0,-231.0,256.0,653.0,349.0,555.0,-624.0,-880.0,3
543,137.0,-218.0,-272.0,-151.0,776.0,207.0,530.0,-831.0,-1134.0,3
544,130.0,-295.0,-265.0,-513.0,1032.0,65.0,486.0,-1148.0,-1116.0,3
545,133.0,-392.0,-193.0,-700.0,1392.0,-73.0,511.0,-1489.0,-852.0,3
546,113.0,-486.0,-59.0,-724.0,1720.0,-269.0,479.0,-1860.0,-322.0,3
547,59.0,-546.0,94.0,-718.0,1826.0,-566.0,353.0,-2132.0,280.0,3
548,25.0,-575.0,214.0,-743.0,1603.0,-880.0,233.0,-2253.0,779.0,3
549,44.0,-582.0,270.0,-740.0,1190.0,-1081.0,263.0,-2262.0,1058.0,3
550,85.0,-575.0,282.0,-643.0,809.0,-1137.0,398.0,-2240.0,1104.0,3
551,94.0,-554.0,235.0,-471.0,605.0,-1115.0,404.0,-2161.0,949.0,3
552,51.0,-511.0,157.0,-253.0,598.0,-1039.0,242.0,-2011.0,636.0,3
553,-4.0,-486.0,70.0,11.0,702.0,-898.0,41.0,-1883.0,310.0,3
554,-71.0,-469.0,-6.0,336.0,818.0,-701.0,-208.0,-1827.0,-69.0,3
555,-146.0,-454.0,-28.0,639.0,904.0,-467.0,-567.0,-1782.0,-159.0,3
556,-191.0,-432.0,-5.0,792.0,956.0,-247.0,-724.0,-1713.0,-48.0,3
557,-195.0,-404.0,48.0,807.0,970.0,-62.0,-729.0,-1616.0,153.0,3
558,-194.0,-378.0,88.0,765.0,923.0,106.0,-719.0,-1527.0,318.0,3
559,-180.0,-358.0,103.0,631.0,816.0,291.0,-663.0,-1473.0,381.0,3
560,-161.0,-341.0,104.0,341.0,681.0,485.0,-583.0,-1441.0,384.0,3
561,-141.0,-333.0,118.0,-103.0,540.0,682.0,-507.0,-1419.0,429.0,3
562,-115.0,-336.0,123.0,-601.0,411.0,885.0,-393.0,-1406.0,452.0,3
563,-84.0,-354.0,114.0,-1040.0,307.0,1075.0,-292.0,-1447.0,440.0,3
564,-63.0,-385.0,104.0,-1360.0,246.0,1225.0,-222.0,-1514.0,389.0,3
565,-54.0,-417.0,102.0,-1548.0,205.0,1327.0,-182.0,-1602.0,377.0,3
566,-55.0,-444.0,110.0,-1588.0,137.0,1391.0,-147.0,-1719.0,405.0,3
567,-54.0,-473.0,122.0,-1490.0,29.0,1431.0,-144.0,-1822.0,435.0,3
568,-57.0,-493.0,128.0,-1291.0,-97.0,1425.0,-148.0,-1909.0,476.0,3
569,-51.0,-511.0,144.0,-1095.0,-237.0,1376.0,-136.0,-1975.0,533.0,3
570,-40.0,-522.0,157.0,-840.0,-385.0,1293.0,-99.0,-2027.0,591.0,3
571,-23.0,-513.0,166.0,-612.0,-498.0,1200.0,-43.0,-2012.0,635.0,3
572,-11.0,-491.0,163.0,-418.0,-603.0,1116.0,9.0,-1951.0,632.0,3
573,1.0,-471.0,154.0,-275.0,-651.0,1042.0,41.0,-1851.0,604.0,3
574,-5.0,-432.0,139.0,-178.0,-646.0,995.0,25.0,-1725.0,540.0,3
575,-10.0,-397.0,123.0,-128.0,-604.0,959.0,-3.0,-1592.0,484.0,3
576,-32.0,-372.0,102.0,-99.0,-549.0,920.0,-71.0,-1498.0,371.0,3
577,-51.0,-354.0,84.0,-111.0,-505.0,907.0,-164.0,-1420.0,304.0,3
578,-63.0,-349.0,68.0,-158.0,-488.0,908.0,-218.0,-1388.0,247.0,3
579,-73.0,-351.0,58.0,-236.0,-505.0,903.0,-258.0,-1398.0,207.0,3
580,-80.0,-345.0,64.0,-314.0,-528.0,884.0,-298.0,-1374.0,234.0,3
581,-78.0,-335.0,73.0,-331.0,-551.0,858.0,-268.0,-1316.0,262.0,3
582,-65.0,-320.0,72.0,-273.0,-578.0,843.0,-215.0,-1257.0,259.0,3
583,-41.0,-293.0,61.0,-177.0,-613.0,826.0,-145.0,-1155.0,204.0,3
584,-25.0,-248.0,33.0,-90.0,-637.0,784.0,-73.0,-978.0,124.0,3
585,-4.0,-195.0,18.0,-31.0,-640.0,723.0,-11.0,-774.0,54.0,3
586,3.0,-141.0,3.0,10.0,-594.0,666.0,18.0,-558.0,13.0,3
587,11.0,-85.0,6.0,37.0,-502.0,594.0,39.0,-299.0,1.0,3
588,13.0,-36.0,15.0,41.0,-413.0,510.0,52.0,-103.0,25.0,3
589,16.0,2.0,14.0,18.0,-366.0,439.0,56.0,15.0,44.0,3
590,14.0,29.0,24.0,-19.0,-349.0,340.0,63.0,94.0,54.0,3
591,15.0,35.0,27.0,-35.0,-345.0,227.0,48.0,146.0,70.0,3
592,5.0,23.0,17.0,-21.0,-347.0,122.0,29.0,111.0,55.0,3
593,6.0,7.0,14.0,5.0,-346.0,17.0,31.0,30.0,41.0,3
594,2.0,-22.0,18.0,34.0,-340.0,-87.0,31.0,-63.0,59.0,3
595,-3.0,-45.0,28.0,96.0,-334.0,-177.0,-9.0,-147.0,81.0,3
596,-16.0,-62.0,28.0,195.0,-341.0,-233.0,-46.0,-225.0,90.0,3
597,-34.0,-74.0,27.0,319.0,-364.0,-261.0,-100.0,-280.0,88.0,3
598,-44.0,-78.0,21.0,438.0,-397.0,-269.0,-149.0,-306.0,65.0,3
599,-46.0,-78.0,16.0,540.0,-432.0,-264.0,-179.0,-304.0,31.0,3
600,-49.0,-74.0,1.0,599.0,-462.0,-266.0,-171.0,-290.0,-13.0,3
601,-41.0,-70.0,-7.0,608.0,-480.0,-285.0,-151.0,-287.0,-52.0,3
602,-30.0,-67.0,-4.0,556.0,-487.0,-300.0,-115.0,-275.0,-47.0,3
603,-16.0,-63.0,0.0,510.0,-487.0,-328.0,-57.0,-244.0,-33.0,3
604,3.0,-61.0,0.0,510.0,-484.0,-366.0,11.0,-228.0,-18.0,3
605,22.0,-54.0,6.0,545.0,-477.0,-400.0,97.0,-206.0,-3.0,3
606,42.0,-43.0,20.0,610.0,-474.0,-427.0,169.0,-158.0,50.0,3
607,56.0,-38.0,33.0,718.0,-468.0,-451.0,225.0,-132.0,88.0,3
608,60.0,-34.0,30.0,848.0,-459.0,-476.0,237.0,-123.0,98.0,3
609,59.0,-36.0,23.0,962.0,-460.0,-494.0,240.0,-128.0,78.0,3
610,45.0,-31.0,12.0,1043.0,-473.0,-492.0,186.0,-142.0,25.0,3
611,23.0,-46.0,-10.0,1083.0,-492.0,-462.0,95.0,-181.0,-60.0,3
612,-20.0,-56.0,-40.0,1050.0,-540.0,-400.0,-44.0,-248.0,-197.0,3
613,-63.0,-73.0,-90.0,901.0,-655.0,-298.0,-233.0,-351.0,-401.0,3
614,-108.0,-105.0,-161.0,604.0,-821.0,-155.0,-402.0,-471.0,-683.0,3
615,-124.0,-144.0,-251.0,171.0,-934.0,26.0,-496.0,-609.0,-1008.0,3
616,-123.0,-208.0,-300.0,-327.0,-911.0,244.0,-474.0,-823.0,-1241.0,3
617,-105.0,-304.0,-295.0,-802.0,-837.0,506.0,-409.0,-1152.0,-1269.0,3
618,-105.0,-412.0,-248.0,-1182.0,-752.0,818.0,-393.0,-1560.0,-1100.0,3
619,-114.0,-520.0,-175.0,-1496.0,-537.0,1217.0,-477.0,-2006.0,-841.0,3
620,-76.0,-634.0,-61.0,-1848.0,-148.0,1688.0,-358.0,-2554.0,-294.0,3
621,-51.0,-714.0,75.0,-2233.0,204.0,1987.0,-130.0,-2825.0,250.0,3
622,-69.0,-746.0,207.0,-2413.0,289.0,1962.0,-155.0,-2873.0,752.0,3
623,-119.0,-726.0,299.0,-2115.0,55.0,1721.0,-310.0,-2722.0,1123.0,3
624,-115.0,-676.0,309.0,-1272.0,-440.0,1493.0,-318.0,-2496.0,1214.0,3
625,-53.0,-624.0,219.0,-106.0,-1029.0,1355.0,-124.0,-2308.0,923.0,3
626,22.0,-568.0,94.0,968.0,-1419.0,1253.0,111.0,-2167.0,396.0,3
627,113.0,-530.0,3.0,1535.0,-1456.0,1124.0,413.0,-2080.0,35.0,3
628,180.0,-492.0,-35.0,1803.0,-1261.0,894.0,686.0,-1970.0,-140.0,3
629,181.0,-442.0,-40.0,1690.0,-979.0,539.0,711.0,-1793.0,-190.0,3
630,144.0,-381.0,-9.0,1354.0,-728.0,142.0,577.0,-1565.0,-97.0,3
631,99.0,-324.0,43.0,960.0,-442.0,-211.0,425.0,-1306.0,152.0,3
632,59.0,-292.0,92.0,614.0,-271.0,-471.0,252.0,-1166.0,334.0,3
633,29.0,-268.0,108.0,335.0,-247.0,-620.0,165.0,-1093.0,404.0,3
634,22.0,-267.0,94.0,83.0,-342.0,-755.0,128.0,-1094.0,347.0,3
635,32.0,-287.0,63.0,-161.0,-455.0,-855.0,134.0,-1140.0,203.0,3
636,24.0,-294.0,35.0,-396.0,-468.0,-941.0,102.0,-1196.0,110.0,3
637,9.0,-313.0,34.0,-617.0,-374.0,-1013.0,39.0,-1248.0,115.0,3
638,-4.0,-321.0,58.0,-793.0,-241.0,-1069.0,-15.0,-1277.0,198.0,3
639,-13.0,-338.0,87.0,-906.0,-109.0,-1125.0,-36.0,-1333.0,313.0,3
640,-19.0,-350.0,113.0,-956.0,6.0,-1187.0,-61.0,-1383.0,429.0,3
641,-24.0,-368.0,137.0,-957.0,103.0,-1229.0,-64.0,-1431.0,514.0,3
642,-28.0,-392.0,137.0,-980.0,191.0,-1218.0,-81.0,-1574.0,537.0,3
643,-34.0,-427.0,147.0,-1070.0,286.0,-1154.0,-101.0,-1692.0,570.0,3
644,-44.0,-457.0,160.0,-1183.0,351.0,-1070.0,-111.0,-1808.0,579.0,3
645,-37.0,-496.0,151.0,-1253.0,331.0,-978.0,-83.0,-1943.0,578.0,3
646,-13.0,-525.0,152.0,-1241.0,235.0,-910.0,-2.0,-2032.0,581.0,3
647,9.0,-533.0,149.0,-1108.0,128.0,-895.0,82.0,-2057.0,570.0,3
648,36.0,-524.0,141.0,-862.0,84.0,-931.0,167.0,-2025.0,530.0,3
649,55.0,-509.0,129.0,-564.0,101.0,-987.0,247.0,-1954.0,490.0,3
650,75.0,-487.0,121.0,-264.0,151.0,-1030.0,326.0,-1884.0,441.0,3
651,89.0,-454.0,103.0,5.0,210.0,-1067.0,385.0,-1772.0,392.0,3
652,93.0,-424.0,96.0,219.0,273.0,-1102.0,396.0,-1664.0,355.0,3
653,82.0,-391.0,94.0,358.0,325.0,-1129.0,372.0,-1541.0,350.0,3
654,70.0,-358.0,91.0,401.0,352.0,-1143.0,323.0,-1417.0,346.0,3
655,56.0,-320.0,102.0,343.0,340.0,-1166.0,256.0,-1266.0,374.0,3
656,47.0,-277.0,103.0,229.0,313.0,-1189.0,208.0,-1121.0,400.0,3
657,29.0,-248.0,105.0,99.0,279.0,-1195.0,141.0,-975.0,393.0,3
658,7.0,-204.0,89.0,-29.0,253.0,-1176.0,53.0,-828.0,339.0,3
659,-17.0,-167.0,74.0,-146.0,242.0,-1125.0,-54.0,-675.0,280.0,3
660,-42.0,-134.0,65.0,-215.0,253.0,-1056.0,-148.0,-543.0,233.0,3
661,-64.0,-107.0,58.0,-220.0,260.0,-982.0,-229.0,-426.0,208.0,3
662,-78.0,-77.0,61.0,-161.0,262.0,-915.0,-296.0,-318.0,203.0,3
663,-76.0,-67.0,62.0,-60.0,246.0,-812.0,-288.0,-261.0,213.0,3
664,-70.0,-60.0,53.0,97.0,212.0,-714.0,-278.0,-221.0,182.0,3
665,-64.0,-46.0,53.0,264.0,166.0,-645.0,-225.0,-159.0,166.0,3
666,-36.0,-29.0,40.0,404.0,100.0,-570.0,-146.0,-112.0,140.0,3
667,-16.0,-16.0,30.0,504.0,49.0,-497.0,-71.0,-71.0,111.0,3
668,10.0,-1.0,15.0,558.0,36.0,-432.0,11.0,-20.0,51.0,3
669,20.0,1.0,2.0,567.0,56.0,-379.0,71.0,3.0,-6.0,3
670,28.0,3.0,-13.0,543.0,83.0,-326.0,121.0,3.0,-66.0,3
671,33.0,-2.0,-33.0,500.0,103.0,-269.0,123.0,-24.0,-143.0,3
672,48.0,-18.0,-31.0,441.0,133.0,-207.0,190.0,-64.0,-154.0,3
673,53.0,-38.0,-35.0,413.0,171.0,-158.0,201.0,-127.0,-161.0,3
674,56.0,-60.0,-34.0,402.0,226.0,-108.0,214.0,-202.0,-169.0,3
675,56.0,-69.0,-27.0,397.0,283.0,-66.0,223.0,-270.0,-135.0,3
676,49.0,-74.0,-17.0,407.0,327.0,-35.0,199.0,-290.0,-97.0,3
677,40.0,-77.0,-7.0,452.0,360.0,0.0,170.0,-286.0,-53.0,3
678,37.0,-69.0,1.0,548.0,392.0,46.0,154.0,-267.0,-9.0,3
679,31.0,-65.0,11.0,690.0,432.0,90.0,134.0,-233.0,25.0,3
680,27.0,-51.0,11.0,857.0,476.0,135.0,109.0,-198.0,22.0,3
681,25.0,-42.0,10.0,1009.0,520.0,173.0,116.0,-158.0,14.0,3
682,32.0,-30.0,-3.0,1122.0,561.0,203.0,128.0,-119.0,-22.0,3
683,36.0,-24.0,-17.0,1176.0,595.0,227.0,138.0,-107.0,-83.0,3
684,41.0,-25.0,-33.0,1165.0,634.0,247.0,168.0,-104.0,-141.0,3
685,51.0,-32.0,-49.0,1116.0,681.0,273.0,208.0,-137.0,-211.0,3
686,79.0,-55.0,-80.0,1036.0,721.0,302.0,298.0,-246.0,-367.0,3
687,118.0,-87.0,-130.0,932.0,753.0,300.0,482.0,-394.0,-577.0,3
688,159.0,-129.0,-192.0,693.0,825.0,232.0,632.0,-569.0,-825.0,3
689,191.0,-174.0,-249.0,325.0,993.0,97.0,733.0,-744.0,-1064.0,3
690,193.0,-228.0,-297.0,-120.0,1273.0,-73.0,734.0,-946.0,-1239.0,3
691,185.0,-309.0,-267.0,-531.0,1547.0,-228.0,701.0,-1227.0,-1119.0,3
692,155.0,-425.0,-117.0,-780.0,1862.0,-340.0,668.0,-1552.0,-656.0,3
693,115.0,-505.0,58.0,-809.0,2010.0,-421.0,559.0,-1873.0,24.0,3
694,80.0,-538.0,205.0,-679.0,1887.0,-547.0,444.0,-2066.0,643.0,3
695,82.0,-541.0,293.0,-485.0,1510.0,-663.0,423.0,-2115.0,1066.0,3
696,123.0,-519.0,306.0,-307.0,1089.0,-709.0,515.0,-2058.0,1215.0,3
697,144.0,-500.0,262.0,-194.0,882.0,-681.0,586.0,-1961.0,1045.0,3
698,117.0,-486.0,200.0,-133.0,942.0,-636.0,478.0,-1902.0,785.0,3
699,38.0,-457.0,126.0,-127.0,1101.0,-615.0,214.0,-1802.0,501.0,3
700,-40.0,-448.0,52.0,-111.0,1177.0,-550.0,-88.0,-1740.0,187.0,3
701,-132.0,-459.0,-17.0,-57.0,1098.0,-423.0,-437.0,-1785.0,-76.0,3
702,-226.0,-460.0,-37.0,9.0,958.0,-297.0,-804.0,-1820.0,-189.0,3
703,-252.0,-456.0,3.0,80.0,868.0,-164.0,-945.0,-1786.0,-53.0,3
704,-253.0,-438.0,36.0,165.0,819.0,-52.0,-946.0,-1745.0,90.0,3
705,-233.0,-416.0,58.0,212.0,779.0,42.0,-864.0,-1682.0,186.0,3
706,-219.0,-391.0,72.0,148.0,678.0,161.0,-818.0,-1604.0,259.0,3
707,-209.0,-382.0,73.0,-55.0,512.0,321.0,-780.0,-1566.0,268.0,3
708,-184.0,-373.0,67.0,-345.0,360.0,527.0,-691.0,-1542.0,240.0,3
709,-131.0,-385.0,65.0,-643.0,258.0,747.0,-464.0,-1561.0,240.0,3
710,-89.0,-400.0,79.0,-890.0,189.0,946.0,-290.0,-1612.0,269.0,3
711,-65.0,-415.0,92.0,-1066.0,133.0,1102.0,-209.0,-1645.0,332.0,3
712,-61.0,-427.0,108.0,-1160.0,56.0,1218.0,-167.0,-1689.0,394.0,3
713,-51.0,-438.0,116.0,-1170.0,-52.0,1299.0,-145.0,-1734.0,426.0,3
714,-35.0,-459.0,118.0,-1117.0,-174.0,1339.0,-78.0,-1805.0,426.0,3
715,-13.0,-473.0,115.0,-1037.0,-297.0,1336.0,3.0,-1858.0,416.0,3
716,2.0,-489.0,107.0,-945.0,-406.0,1292.0,56.0,-1906.0,408.0,3
717,17.0,-492.0,115.0,-843.0,-491.0,1221.0,105.0,-1929.0,414.0,3
718,17.0,-479.0,115.0,-731.0,-555.0,1152.0,134.0,-1900.0,454.0,3
719,25.0,-471.0,134.0,-600.0,-605.0,1098.0,141.0,-1832.0,494.0,3
720,26.0,-447.0,131.0,-453.0,-624.0,1070.0,152.0,-1752.0,505.0,3
721,20.0,-425.0,124.0,-307.0,-604.0,1050.0,121.0,-1662.0,475.0,3
722,2.0,-392.0,114.0,-193.0,-552.0,1029.0,46.0,-1546.0,439.0,3
723,-20.0,-368.0,112.0,-104.0,-493.0,1020.0,-25.0,-1457.0,419.0,3
724,-35.0,-352.0,113.0,-34.0,-449.0,1020.0,-103.0,-1393.0,407.0,3
725,-50.0,-344.0,100.0,-4.0,-433.0,1021.0,-147.0,-1380.0,381.0,3
726,-50.0,-344.0,91.0,-56.0,-445.0,1006.0,-177.0,-1386.0,344.0,3
727,-59.0,-340.0,91.0,-156.0,-467.0,979.0,-202.0,-1365.0,322.0,3
728,-56.0,-337.0,96.0,-231.0,-481.0,962.0,-199.0,-1325.0,357.0,3
729,-52.0,-321.0,102.0,-220.0,-495.0,968.0,-168.0,-1270.0,384.0,3
730,-30.0,-301.0,100.0,-118.0,-505.0,976.0,-71.0,-1161.0,369.0,3
731,-3.0,-266.0,86.0,38.0,-518.0,975.0,-1.0,-1031.0,303.0,3
732,19.0,-223.0,61.0,184.0,-512.0,958.0,92.0,-860.0,236.0,3
733,44.0,-167.0,44.0,302.0,-476.0,922.0,187.0,-644.0,159.0,3
734,58.0,-106.0,21.0,379.0,-419.0,866.0,242.0,-417.0,78.0,3
735,72.0,-51.0,9.0,404.0,-343.0,794.0,276.0,-195.0,23.0,3
736,74.0,5.0,4.0,367.0,-267.0,713.0,276.0,15.0,-9.0,3
737,63.0,53.0,0.0,286.0,-204.0,614.0,241.0,189.0,-29.0,3
738,49.0,87.0,-1.0,181.0,-161.0,502.0,199.0,308.0,-23.0,3
739,42.0,100.0,3.0,85.0,-130.0,394.0,151.0,379.0,-17.0,3
740,29.0,98.0,2.0,12.0,-99.0,300.0,102.0,382.0,-21.0,3
741,16.0,85.0,2.0,-49.0,-72.0,192.0,40.0,307.0,-23.0,3
742,-5.0,50.0,5.0,-112.0,-54.0,78.0,-17.0,200.0,-19.0,3
743,-23.0,11.0,12.0,-156.0,-54.0,-10.0,-85.0,68.0,2.0,3
744,-40.0,-24.0,15.0,-149.0,-74.0,-52.0,-145.0,-73.0,28.0,3
745,-54.0,-63.0,18.0,-111.0,-96.0,-70.0,-203.0,-222.0,41.0,3
746,-68.0,-87.0,17.0,-40.0,-118.0,-87.0,-244.0,-314.0,57.0,3
747,-72.0,-105.0,17.0,70.0,-151.0,-95.0,-264.0,-401.0,48.0,3
748,-76.0,-110.0,24.0,190.0,-190.0,-76.0,-292.0,-419.0,74.0,3
749,-80.0,-110.0,26.0,318.0,-247.0,-73.0,-291.0,-422.0,87.0,3
750,-74.0,-101.0,28.0,428.0,-314.0,-85.0,-271.0,-412.0,93.0,3
751,-63.0,-91.0,27.0,507.0,-386.0,-108.0,-237.0,-370.0,90.0,3
752,-52.0,-80.0,27.0,563.0,-456.0,-129.0,-182.0,-304.0,103.0,3
753,-32.0,-67.0,39.0,624.0,-517.0,-154.0,-100.0,-264.0,132.0,3
754,-15.0,-57.0,40.0,711.0,-566.0,-191.0,-48.0,-221.0,141.0,3
755,-10.0,-47.0,38.0,823.0,-603.0,-229.0,-35.0,-176.0,133.0,3
756,-12.0,-39.0,32.0,933.0,-624.0,-253.0,-41.0,-153.0,119.0,3
757,-22.0,-37.0,23.0,1027.0,-639.0,-261.0,-80.0,-145.0,80.0,3
758,-27.0,-36.0,5.0,1083.0,-659.0,-245.0,-99.0,-160.0,15.0,3
759,-22.0,-50.0,-9.0,1098.0,-688.0,-215.0,-89.0,-187.0,-51.0,3
760,-30.0,-56.0,-29.0,1089.0,-701.0,-167.0,-107.0,-241.0,-127.0,3
761,-57.0,-74.0,-55.0,1040.0,-718.0,-104.0,-202.0,-312.0,-232.0,3
762,-107.0,-90.0,-101.0,896.0,-778.0,-10.0,-375.0,-410.0,-412.0,3
763,-170.0,-112.0,-190.0,592.0,-894.0,135.0,-663.0,-562.0,-806.0,3
764,-205.0,-143.0,-272.0,76.0,-967.0,346.0,-832.0,-730.0,-1172.0,3
765,-206.0,-232.0,-347.0,-590.0,-942.0,651.0,-779.0,-1053.0,-1444.0,3
766,-192.0,-360.0,-337.0,-1217.0,-961.0,1001.0,-693.0,-1513.0,-1392.0,3
767,-187.0,-519.0,-272.0,-1674.0,-1031.0,1364.0,-718.0,-2007.0,-1200.0,3
768,-124.0,-651.0,-188.0,-2015.0,-932.0,1760.0,-557.0,-2527.0,-891.0,3
769,-17.0,-763.0,-57.0,-2323.0,-600.0,2119.0,-120.0,-2926.0,-396.0,3
770,38.0,-826.0,113.0,-2468.0,-260.0,2198.0,208.0,-3163.0,242.0,3
771,-21.0,-793.0,267.0,-2263.0,-103.0,1910.0,78.0,-3061.0,877.0,3
772,-73.0,-713.0,360.0,-1643.0,-224.0,1501.0,-122.0,-2732.0,1342.0,3
773,-40.0,-636.0,345.0,-729.0,-638.0,1215.0,-108.0,-2456.0,1328.0,3
774,58.0,-591.0,228.0,199.0,-1112.0,1050.0,285.0,-2244.0,914.0,3
775,172.0,-548.0,122.0,906.0,-1340.0,893.0,695.0,-2086.0,474.0,3
776,279.0,-511.0,19.0,1308.0,-1309.0,735.0,1109.0,-1995.0,74.0,3
777,316.0,-492.0,-53.0,1375.0,-1120.0,521.0,1234.0,-1940.0,-215.0,3
778,295.0,-457.0,-48.0,1198.0,-784.0,221.0,1148.0,-1821.0,-229.0,3
779,254.0,-433.0,-4.0,926.0,-380.0,-87.0,1008.0,-1712.0,-79.0,3
780,199.0,-404.0,44.0,641.0,-58.0,-348.0,806.0,-1603.0,122.0,3
781,130.0,-374.0,62.0,391.0,160.0,-557.0,552.0,-1507.0,209.0,3
782,95.0,-353.0,70.0,125.0,277.0,-683.0,415.0,-1433.0,250.0,3
783,67.0,-344.0,61.0,-151.0,299.0,-783.0,312.0,-1391.0,230.0,3
784,46.0,-346.0,54.0,-380.0,305.0,-852.0,224.0,-1365.0,176.0,3
785,22.0,-342.0,54.0,-529.0,360.0,-891.0,95.0,-1351.0,192.0,3
786,-4.0,-343.0,67.0,-607.0,452.0,-916.0,-9.0,-1341.0,242.0,3
787,-34.0,-338.0,85.0,-628.0,540.0,-947.0,-109.0,-1338.0,309.0,3
788,-50.0,-342.0,101.0,-617.0,605.0,-984.0,-175.0,-1339.0,381.0,3
789,-61.0,-347.0,110.0,-574.0,647.0,-1028.0,-209.0,-1352.0,404.0,3
790,-65.0,-360.0,105.0,-532.0,681.0,-1067.0,-233.0,-1437.0,391.0,3
791,-77.0,-390.0,103.0,-552.0,720.0,-1090.0,-272.0,-1533.0,378.0,3
792,-93.0,-415.0,111.0,-640.0,765.0,-1096.0,-331.0,-1631.0,403.0,3
793,-106.0,-443.0,126.0,-746.0,768.0,-1095.0,-361.0,-1737.0,452.0,3
794,-104.0,-464.0,130.0,-819.0,693.0,-1093.0,-350.0,-1815.0,490.0,3
795,-79.0,-480.0,137.0,-829.0,564.0,-1107.0,-271.0,-1877.0,521.0,3
796,-53.0,-480.0,140.0,-747.0,450.0,-1143.0,-153.0,-1862.0,528.0,3
797,-24.0,-465.0,129.0,-568.0,373.0,-1209.0,-50.0,-1804.0,476.0,3
798,7.0,-443.0,107.0,-348.0,331.0,-1272.0,73.0,-1715.0,418.0,3
799,40.0,-419.0,103.0,-134.0,329.0,-1322.0,194.0,-1622.0,377.0,3
800,55.0,-402.0,89.0,83.0,368.0,-1367.0,245.0,-1561.0,333.0,3
801,58.0,-383.0,72.0,229.0,424.0,-1391.0,253.0,-1512.0,260.0,3
802,56.0,-360.0,61.0,302.0,446.0,-1402.0,260.0,-1432.0,232.0,3
803,53.0,-339.0,69.0,268.0,430.0,-1408.0,261.0,-1350.0,244.0,3
804,52.0,-313.0,79.0,187.0,385.0,-1417.0,244.0,-1248.0,278.0,3
805,44.0,-279.0,82.0,119.0,335.0,-1425.0,217.0,-1122.0,312.0,3
806,26.0,-240.0,76.0,58.0,273.0,-1424.0,167.0,-972.0,291.0,3
807,11.0,-194.0,70.0,-23.0,194.0,-1406.0,81.0,-770.0,263.0,3
808,-6.0,-151.0,67.0,-105.0,117.0,-1363.0,-16.0,-597.0,237.0,3
809,-23.0,-119.0,60.0,-142.0,83.0,-1294.0,-88.0,-460.0,216.0,3
810,-41.0,-92.0,59.0,-109.0,118.0,-1200.0,-161.0,-354.0,209.0,3
811,-56.0,-76.0,64.0,-23.0,203.0,-1087.0,-228.0,-283.0,217.0,3
812,-62.0,-59.0,69.0,78.0,286.0,-961.0,-240.0,-250.0,242.0,3
813,-59.0,-63.0,71.0,161.0,316.0,-811.0,-208.0,-245.0,257.0,3
814,-50.0,-60.0,65.0,271.0,292.0,-671.0,-178.0,-237.0,234.0,3
815,-28.0,-55.0,57.0,383.0,228.0,-549.0,-85.0,-210.0,200.0,3
816,-5.0,-45.0,37.0,489.0,143.0,-448.0,4.0,-184.0,124.0,3
817,27.0,-33.0,3.0,556.0,69.0,-364.0,89.0,-145.0,9.0,3
818,45.0,-24.0,-11.0,571.0,40.0,-293.0,180.0,-89.0,-57.0,3
819,62.0,-19.0,-24.0,548.0,50.0,-223.0,242.0,-71.0,-111.0,3
820,67.0,-14.0,-33.0,517.0,92.0,-170.0,261.0,-60.0,-159.0,3
821,77.0,-23.0,-39.0,495.0,153.0,-128.0,290.0,-94.0,-180.0,3
822,76.0,-29.0,-33.0,471.0,234.0,-88.0,297.0,-104.0,-161.0,3
823,77.0,-37.0,-30.0,469.0,329.0,-37.0,294.0,-137.0,-154.0,3
824,72.0,-44.0,-22.0,474.0,431.0,23.0,287.0,-169.0,-126.0,3
825,65.0,-49.0,-8.0,495.0,516.0,82.0,263.0,-170.0,-79.0,3
826,54.0,-43.0,3.0,547.0,584.0,136.0,224.0,-153.0,-18.0,3
827,48.0,-33.0,19.0,640.0,633.0,193.0,175.0,-121.0,28.0,3
828,38.0,-28.0,24.0,764.0,676.0,253.0,154.0,-91.0,53.0,3
829,28.0,-20.0,20.0,884.0,707.0,307.0,120.0,-64.0,52.0,3
830,24.0,-17.0,17.0,980.0,731.0,356.0,106.0,-57.0,46.0,3
831,24.0,-14.0,12.0,1039.0,749.0,395.0,103.0,-57.0,25.0,3
832,29.0,-17.0,3.0,1067.0,760.0,427.0,115.0,-74.0,1.0,3
833,39.0,-28.0,0.0,1088.0,765.0,445.0,145.0,-105.0,-26.0,3
834,40.0,-36.0,-15.0,1104.0,771.0,457.0,167.0,-137.0,-80.0,3
835,44.0,-44.0,-33.0,1094.0,785.0,462.0,182.0,-178.0,-142.0,3
836,52.0,-59.0,-43.0,1042.0,801.0,462.0,222.0,-240.0,-205.0,3
837,72.0,-80.0,-77.0,939.0,794.0,452.0,294.0,-336.0,-321.0,3
838,106.0,-117.0,-128.0,738.0,753.0,409.0,422.0,-491.0,-512.0,3
839,140.0,-158.0,-183.0,382.0,744.0,302.0,531.0,-671.0,-800.0,3
840,149.0,-211.0,-245.0,-86.0,881.0,132.0,557.0,-899.0,-1040.0,3
841,140.0,-276.0,-263.0,-545.0,1161.0,-33.0,526.0,-1148.0,-1093.0,3
842,136.0,-402.0,-189.0,-863.0,1498.0,-153.0,533.0,-1503.0,-873.0,3
843,110.0,-513.0,-63.0,-1000.0,1764.0,-292.0,506.0,-1949.0,-388.0,3
844,64.0,-589.0,102.0,-1060.0,1807.0,-535.0,371.0,-2275.0,253.0,3
845,22.0,-637.0,231.0,-1099.0,1550.0,-836.0,229.0,-2475.0,795.0,3
846,31.0,-647.0,306.0,-1101.0,1137.0,-1080.0,208.0,-2538.0,1131.0,3
847,69.0,-643.0,330.0,-1026.0,798.0,-1230.0,334.0,-2532.0,1290.0,3
848,45.0,-603.0,292.0,-838.0,626.0,-1319.0,269.0,-2369.0,1208.0,3
849,-3.0,-556.0,200.0,-524.0,645.0,-1324.0,52.0,-2167.0,868.0,3
850,-62.0,-523.0,97.0,-135.0,781.0,-1219.0,-157.0,-2025.0,348.0,3
851,-129.0,-500.0,13.0,301.0,901.0,-966.0,-463.0,-1933.0,34.0,3
852,-169.0,-495.0,-5.0,686.0,960.0,-648.0,-615.0,-1934.0,-62.0,3
853,-164.0,-475.0,18.0,945.0,969.0,-396.0,-601.0,-1868.0,35.0,3
854,-155.0,-437.0,57.0,1102.0,917.0,-223.0,-566.0,-1733.0,180.0,3
855,-135.0,-386.0,72.0,1128.0,819.0,-82.0,-495.0,-1562.0,259.0,3
856,-122.0,-333.0,70.0,961.0,711.0,49.0,-441.0,-1399.0,270.0,3
857,-113.0,-291.0,88.0,677.0,639.0,191.0,-414.0,-1246.0,322.0,3
858,-99.0,-269.0,102.0,213.0,598.0,373.0,-365.0,-1154.0,362.0,3
859,-78.0,-270.0,115.0,-281.0,568.0,586.0,-280.0,-1140.0,422.0,3
860,-49.0,-300.0,131.0,-702.0,548.0,784.0,-169.0,-1219.0,506.0,3
861,-35.0,-329.0,156.0,-1000.0,515.0,941.0,-92.0,-1320.0,604.0,3
862,-27.0,-365.0,163.0,-1186.0,454.0,1036.0,-66.0,-1461.0,635.0,3
863,-28.0,-397.0,164.0,-1280.0,384.0,1128.0,-70.0,-1569.0,623.0,3
864,-34.0,-430.0,154.0,-1282.0,317.0,1186.0,-82.0,-1692.0,590.0,3
865,-38.0,-465.0,147.0,-1220.0,250.0,1227.0,-81.0,-1831.0,557.0,3
866,-23.0,-501.0,143.0,-1131.0,165.0,1237.0,-34.0,-1961.0,527.0,3
867,2.0,-539.0,128.0,-1016.0,80.0,1214.0,45.0,-2082.0,493.0,3
868,28.0,-554.0,121.0,-868.0,33.0,1168.0,137.0,-2134.0,444.0,3
869,45.0,-541.0,124.0,-693.0,24.0,1104.0,216.0,-2108.0,438.0,3
870,60.0,-515.0,120.0,-508.0,33.0,1047.0,258.0,-2026.0,444.0,3
871,60.0,-477.0,116.0,-329.0,54.0,1018.0,273.0,-1896.0,444.0,3
872,50.0,-427.0,109.0,-162.0,99.0,1000.0,238.0,-1652.0,409.0,3
873,32.0,-378.0,105.0,-14.0,176.0,1002.0,160.0,-1488.0,385.0,3
874,10.0,-331.0,102.0,82.0,256.0,1035.0,88.0,-1318.0,391.0,3
875,-16.0,-301.0,98.0,109.0,306.0,1061.0,-21.0,-1218.0,374.0,3
876,-34.0,-273.0,93.0,38.0,339.0,1090.0,-112.0,-1119.0,357.0,3
877,-56.0,-258.0,87.0,-97.0,363.0,1104.0,-194.0,-1068.0,328.0,3
878,-64.0,-252.0,73.0,-256.0,383.0,1107.0,-235.0,-1017.0,286.0,3
879,-73.0,-245.0,69.0,-400.0,400.0,1102.0,-259.0,-971.0,257.0,3
880,-78.0,-240.0,63.0,-499.0,404.0,1093.0,-277.0,-949.0,232.0,3
881,-83.0,-224.0,61.0,-552.0,392.0,1058.0,-301.0,-899.0,218.0,3
882,-81.0,-211.0,47.0,-595.0,362.0,1000.0,-302.0,-858.0,185.0,3
883,-70.0,-192.0,45.0,-642.0,323.0,918.0,-268.0,-746.0,150.0,3
884,-55.0,-168.0,37.0,-654.0,294.0,817.0,-197.0,-648.0,128.0,3
885,-31.0,-152.0,37.0,-609.0,284.0,705.0,-109.0,-578.0,126.0,3
886,-12.0,-134.0,39.0,-517.0,286.0,563.0,-32.0,-509.0,128.0,3
887,0.0,-119.0,39.0,-394.0,289.0,396.0,14.0,-441.0,131.0,3
888,5.0,-97.0,35.0,-241.0,278.0,242.0,44.0,-366.0,114.0,3
889,13.0,-86.0,24.0,-86.0,254.0,112.0,66.0,-330.0,73.0,3
890,14.0,-78.0,13.0,50.0,223.0,-18.0,67.0,-289.0,26.0,3
891,11.0,-74.0,6.0,166.0,187.0,-145.0,51.0,-257.0,-4.0,3
892,4.0,-58.0,-2.0,255.0,134.0,-262.0,35.0,-224.0,-39.0,3
893,-5.0,-50.0,-13.0,329.0,64.0,-346.0,14.0,-193.0,-62.0,3
894,-14.0,-41.0,-16.0,397.0,-21.0,-379.0,-27.0,-164.0,-88.0,3
895,-26.0,-41.0,-21.0,445.0,-107.0,-372.0,-77.0,-153.0,-97.0,3
896,-43.0,-42.0,-16.0,473.0,-169.0,-341.0,-148.0,-161.0,-94.0,3
897,-57.0,-42.0,-12.0,488.0,-208.0,-299.0,-216.0,-173.0,-67.0,3
898,-72.0,-43.0,-1.0,505.0,-238.0,-250.0,-268.0,-166.0,-37.0,3
899,-79.0,-43.0,-5.0,540.0,-273.0,-195.0,-301.0,-169.0,-48.0,3
900,-97.0,-36.0,2.0,574.0,-306.0,-147.0,-372.0,-159.0,-35.0,3
901,-98.0,-38.0,6.0,627.0,-324.0,-118.0,-383.0,-151.0,12.0,3
902,-96.0,-36.0,9.0,704.0,-354.0,-126.0,-378.0,-134.0,24.0,3
903,-89.0,-30.0,8.0,782.0,-393.0,-147.0,-343.0,-114.0,21.0,3
904,-72.0,-22.0,8.0,843.0,-440.0,-167.0,-284.0,-91.0,9.0,3
905,-60.0,-14.0,6.0,899.0,-491.0,-186.0,-228.0,-84.0,-6.0,3
906,-46.0,-17.0,4.0,953.0,-539.0,-209.0,-160.0,-76.0,1.0,3
907,-31.0,-21.0,9.0,1003.0,-579.0,-237.0,-115.0,-91.0,10.0,3
908,-26.0,-28.0,8.0,1034.0,-617.0,-260.0,-93.0,-106.0,19.0,3
909,-27.0,-29.0,11.0,1035.0,-647.0,-261.0,-96.0,-123.0,20.0,3
910,-29.0,-34.0,0.0,1006.0,-677.0,-242.0,-108.0,-147.0,-2.0,3
911,-28.0,-42.0,-11.0,955.0,-711.0,-206.0,-106.0,-175.0,-48.0,3
912,-32.0,-50.0,-24.0,890.0,-751.0,-160.0,-105.0,-212.0,-99.0,3
913,-54.0,-66.0,-48.0,801.0,-822.0,-104.0,-180.0,-264.0,-200.0,3
914,-93.0,-76.0,-98.0,661.0,-934.0,-5.0,-333.0,-352.0,-388.0,3
915,-133.0,-105.0,-173.0,380.0,-1049.0,141.0,-512.0,-478.0,-683.0,3
916,-158.0,-138.0,-242.0,-84.0,-1063.0,335.0,-615.0,-692.0,-1043.0,3
917,-145.0,-212.0,-280.0,-641.0,-986.0,572.0,-527.0,-952.0,-1179.0,3
918,-100.0,-342.0,-255.0,-1115.0,-955.0,821.0,-347.0,-1328.0,-1100.0,3
919,-53.0,-458.0,-178.0,-1356.0,-988.0,1080.0,-191.0,-1756.0,-830.0,3
920,17.0,-559.0,-69.0,-1511.0,-941.0,1413.0,45.0,-2157.0,-387.0,3
921,93.0,-635.0,68.0,-1647.0,-722.0,1706.0,353.0,-2476.0,146.0,3
922,131.0,-656.0,213.0,-1814.0,-482.0,1761.0,537.0,-2570.0,726.0,3
923,90.0,-633.0,319.0,-1859.0,-220.0,1563.0,428.0,-2454.0,1188.0,3
924,30.0,-583.0,354.0,-1635.0,-107.0,1283.0,241.0,-2242.0,1383.0,3
925,20.0,-543.0,322.0,-1145.0,-235.0,1111.0,181.0,-2063.0,1315.0,3
926,62.0,-523.0,241.0,-471.0,-553.0,984.0,285.0,-1981.0,1011.0,3
927,120.0,-523.0,134.0,202.0,-846.0,896.0,498.0,-2005.0,499.0,3
928,170.0,-538.0,36.0,705.0,-991.0,817.0,684.0,-2080.0,121.0,3
929,192.0,-547.0,-17.0,957.0,-930.0,710.0,748.0,-2159.0,-97.0,3
930,182.0,-530.0,-10.0,940.0,-641.0,488.0,695.0,-2109.0,-62.0,3
931,141.0,-496.0,47.0,758.0,-253.0,200.0,562.0,-1987.0,141.0,3
932,88.0,-460.0,100.0,545.0,73.0,-87.0,357.0,-1831.0,359.0,3
933,26.0,-419.0,127.0,350.0,265.0,-325.0,161.0,-1683.0,483.0,3
934,-15.0,-389.0,128.0,154.0,279.0,-485.0,37.0,-1573.0,500.0,3
935,-11.0,-382.0,114.0,-43.0,179.0,-592.0,-3.0,-1520.0,425.0,3
936,-5.0,-381.0,87.0,-223.0,106.0,-673.0,9.0,-1512.0,316.0,3
937,-14.0,-385.0,74.0,-381.0,112.0,-761.0,-25.0,-1522.0,266.0,3
938,-28.0,-382.0,83.0,-504.0,166.0,-842.0,-90.0,-1498.0,303.0,3
939,-39.0,-380.0,102.0,-576.0,227.0,-913.0,-116.0,-1494.0,383.0,3
940,-37.0,-378.0,123.0,-597.0,273.0,-982.0,-107.0,-1487.0,459.0,3
941,-32.0,-379.0,134.0,-589.0,306.0,-1059.0,-93.0,-1498.0,509.0,3
942,-34.0,-384.0,142.0,-574.0,345.0,-1116.0,-114.0,-1526.0,546.0,3
943,-47.0,-406.0,156.0,-577.0,406.0,-1125.0,-153.0,-1598.0,580.0,3
944,-55.0,-430.0,161.0,-603.0,458.0,-1117.0,-164.0,-1689.0,620.0,3
945,-63.0,-446.0,160.0,-636.0,454.0,-1137.0,-188.0,-1750.0,619.0,3
946,-56.0,-455.0,149.0,-671.0,381.0,-1177.0,-167.0,-1785.0,578.0,3
947,-41.0,-450.0,134.0,-693.0,280.0,-1242.0,-120.0,-1786.0,528.0,3
948,-15.0,-438.0,122.0,-680.0,194.0,-1331.0,-33.0,-1730.0,472.0,3
949,9.0,-415.0,102.0,-630.0,126.0,-1433.0,83.0,-1614.0,372.0,3
950,35.0,-385.0,86.0,-579.0,80.0,-1537.0,175.0,-1506.0,315.0,3
951,50.0,-356.0,77.0,-539.0,64.0,-1616.0,229.0,-1394.0,275.0,3
952,54.0,-335.0,72.0,-506.0,83.0,-1669.0,245.0,-1324.0,269.0,3
953,55.0,-317.0,70.0,-498.0,120.0,-1698.0,266.0,-1256.0,253.0,3
954,54.0,-288.0,61.0,-563.0,127.0,-1723.0,255.0,-1165.0,208.0,3
955,50.0,-270.0,65.0,-727.0,80.0,-1742.0,230.0,-1093.0,211.0,3
956,46.0,-257.0,73.0,-940.0,26.0,-1727.0,205.0,-1042.0,248.0,3
957,44.0,-256.0,83.0,-1125.0,-1.0,-1674.0,201.0,-1028.0,307.0,3
958,45.0,-266.0,95.0,-1253.0,-13.0,-1604.0,200.0,-1043.0,334.0,3
959,31.0,-262.0,90.0,-1312.0,-42.0,-1536.0,157.0,-1042.0,340.0,3
960,11.0,-255.0,94.0,-1291.0,-81.0,-1454.0,79.0,-977.0,347.0,3
961,4.0,-247.0,98.0,-1151.0,-110.0,-1346.0,34.0,-912.0,366.0,3
962,-3.0,-230.0,102.0,-885.0,-119.0,-1229.0,-3.0,-862.0,373.0,3
963,-11.0,-215.0,103.0,-550.0,-103.0,-1120.0,-22.0,-802.0,385.0,3
964,-6.0,-192.0,107.0,-232.0,-105.0,-1007.0,-1.0,-727.0,399.0,3
965,-9.0,-168.0,99.0,36.0,-136.0,-890.0,-3.0,-631.0,363.0,3
966,-2.0,-129.0,87.0,239.0,-190.0,-787.0,16.0,-508.0,313.0,3
967,1.0,-85.0,67.0,355.0,-264.0,-680.0,34.0,-364.0,235.0,3
968,13.0,-42.0,36.0,395.0,-314.0,-565.0,61.0,-212.0,140.0,3
969,25.0,-13.0,11.0,380.0,-325.0,-460.0,90.0,-89.0,63.0,3
970,26.0,11.0,3.0,327.0,-299.0,-372.0,92.0,14.0,10.0,3
971,21.0,28.0,12.0,263.0,-227.0,-288.0,67.0,89.0,15.0,3
972,14.0,28.0,16.0,209.0,-140.0,-199.0,45.0,115.0,40.0,3
973,0.0,25.0,13.0,174.0,-72.0,-110.0,13.0,89.0,37.0,3
974,4.0,13.0,18.0,136.0,-39.0,-17.0,9.0,44.0,42.0,3
975,-1.0,2.0,18.0,109.0,-16.0,67.0,-12.0,14.0,43.0,3
976,-2.0,-13.0,1.0,114.0,11.0,140.0,-31.0,-51.0,1.0,3
977,-10.0,-26.0,-9.0,126.0,49.0,202.0,-34.0,-95.0,-46.0,3
978,-10.0,-38.0,-11.0,143.0,105.0,250.0,-44.0,-148.0,-75.0,3
979,-11.0,-46.0,-11.0,182.0,169.0,287.0,-46.0,-179.0,-85.0,3
980,-12.0,-54.0,-7.0,259.0,226.0,314.0,-45.0,-192.0,-70.0,3
981,-8.0,-56.0,0.0,374.0,269.0,328.0,-30.0,-197.0,-30.0,3
982,1.0,-54.0,5.0,517.0,302.0,335.0,7.0,-198.0,-1.0,3
983,8.0,-55.0,6.0,660.0,330.0,341.0,51.0,-204.0,-1.0,3
984,20.0,-56.0,6.0,790.0,349.0,357.0,93.0,-210.0,-3.0,3
985,32.0,-63.0,5.0,898.0,352.0,377.0,137.0,-225.0,-5.0,3
986,40.0,-61.0,5.0,971.0,351.0,385.0,169.0,-227.0,-1.0,3
987,45.0,-60.0,1.0,1051.0,339.0,393.0,204.0,-232.0,-8.0,3
988,56.0,-62.0,-8.0,1105.0,320.0,401.0,236.0,-233.0,-43.0,3
989,60.0,-61.0,-25.0,1121.0,290.0,420.0,252.0,-242.0,-114.0,3
990,80.0,-69.0,-51.0,1095.0,270.0,447.0,328.0,-282.0,-226.0,3
991,125.0,-94.0,-112.0,1014.0,244.0,465.0,495.0,-372.0,-446.0,3
992,188.0,-131.0,-195.0,803.0,203.0,443.0,725.0,-540.0,-874.0,3
993,255.0,-184.0,-295.0,417.0,211.0,332.0,980.0,-760.0,-1200.0,3
994,255.0,-241.0,-352.0,-78.0,367.0,142.0,964.0,-928.0,-1443.0,3
995,233.0,-313.0,-340.0,-495.0,707.0,-12.0,894.0,-1167.0,-1457.0,3
996,220.0,-414.0,-233.0,-672.0,1126.0,-61.0,866.0,-1532.0,-1080.0,3
997,187.0,-507.0,-73.0,-678.0,1486.0,-121.0,796.0,-1940.0,-447.0,3
998,114.0,-570.0,78.0,-724.0,1616.0,-369.0,560.0,-2224.0,186.0,3
999,53.0,-596.0,211.0,-876.0,1455.0,-725.0,332.0,-2350.0,731.0,3
1000,58.0,-613.0,302.0,-1030.0,1115.0,-990.0,322.0,-2396.0,1130.0,3
1001,52.0,-611.0,311.0,-1055.0,754.0,-1077.0,300.0,-2377.0,1241.0,3
1002,22.0,-599.0,263.0,-878.0,505.0,-1013.0,191.0,-2313.0,1086.0,3
1003,-30.0,-587.0,163.0,-534.0,372.0,-915.0,-12.0,-2282.0,606.0,3
1004,-80.0,-575.0,56.0,-109.0,316.0,-800.0,-295.0,-2196.0,186.0,3
1005,-134.0,-561.0,-29.0,405.0,348.0,-646.0,-506.0,-2141.0,-160.0,3
1006,-168.0,-520.0,-51.0,903.0,473.0,-482.0,-625.0,-2010.0,-252.0,3
1007,-174.0,-455.0,-25.0,1267.0,586.0,-343.0,-632.0,-1798.0,-127.0,3
1008,-177.0,-385.0,6.0,1426.0,590.0,-236.0,-634.0,-1560.0,-10.0,3
1009,-174.0,-317.0,34.0,1349.0,492.0,-130.0,-624.0,-1325.0,113.0,3
1010,-162.0,-258.0,69.0,1051.0,330.0,25.0,-575.0,-1129.0,240.0,3
1011,-140.0,-231.0,78.0,591.0,164.0,245.0,-523.0,-1016.0,285.0,3
1012,-118.0,-228.0,79.0,26.0,56.0,498.0,-439.0,-1003.0,292.0,3
1013,-81.0,-253.0,83.0,-551.0,9.0,749.0,-310.0,-1061.0,306.0,3
1014,-42.0,-293.0,80.0,-1025.0,-4.0,973.0,-148.0,-1185.0,309.0,3
1015,-17.0,-339.0,80.0,-1348.0,1.0,1133.0,-30.0,-1372.0,310.0,3
1016,-10.0,-382.0,92.0,-1524.0,4.0,1239.0,5.0,-1515.0,337.0,3
1017,-15.0,-419.0,103.0,-1559.0,-30.0,1310.0,-6.0,-1638.0,378.0,3
1018,-15.0,-460.0,116.0,-1463.0,-105.0,1372.0,-3.0,-1768.0,421.0,3
1019,-1.0,-494.0,125.0,-1280.0,-207.0,1418.0,40.0,-1884.0,447.0,3
1020,21.0,-511.0,119.0,-1067.0,-318.0,1427.0,134.0,-1970.0,458.0,3
1021,51.0,-525.0,112.0,-869.0,-411.0,1392.0,240.0,-2038.0,423.0,3
1022,77.0,-526.0,112.0,-704.0,-457.0,1329.0,335.0,-2047.0,423.0,3
1023,95.0,-510.0,115.0,-561.0,-459.0,1262.0,402.0,-2004.0,430.0,3
1024,96.0,-488.0,113.0,-432.0,-433.0,1217.0,411.0,-1922.0,420.0,3
1025,100.0,-462.0,99.0,-344.0,-378.0,1208.0,413.0,-1826.0,368.0,3
1026,94.0,-423.0,94.0,-300.0,-292.0,1207.0,390.0,-1656.0,341.0,3
1027,69.0,-392.0,91.0,-257.0,-188.0,1198.0,312.0,-1534.0,325.0,3
1028,48.0,-366.0,93.0,-214.0,-90.0,1201.0,216.0,-1432.0,346.0,3
1029,15.0,-345.0,98.0,-171.0,-27.0,1218.0,104.0,-1379.0,362.0,3
1030,-11.0,-338.0,95.0,-167.0,9.0,1241.0,-4.0,-1343.0,348.0,3
1031,-27.0,-339.0,87.0,-228.0,48.0,1262.0,-85.0,-1342.0,317.0,3
1032,-48.0,-335.0,87.0,-344.0,82.0,1268.0,-151.0,-1330.0,321.0,3
1033,-54.0,-330.0,82.0,-457.0,99.0,1261.0,-188.0,-1319.0,297.0,3
1034,-60.0,-327.0,78.0,-548.0,98.0,1238.0,-196.0,-1304.0,279.0,3
1035,-57.0,-311.0,75.0,-598.0,76.0,1191.0,-193.0,-1226.0,274.0,3
1036,-44.0,-291.0,71.0,-589.0,56.0,1128.0,-165.0,-1141.0,252.0,3
1037,-32.0,-258.0,65.0,-510.0,38.0,1063.0,-96.0,-992.0,237.0,3
1038,-23.0,-219.0,56.0,-379.0,15.0,973.0,-62.0,-836.0,185.0,3
1039,-3.0,-180.0,41.0,-232.0,-14.0,888.0,12.0,-673.0,139.0,3
1040,15.0,-134.0,30.0,-100.0,-35.0,805.0,81.0,-510.0,106.0,3
1041,30.0,-91.0,22.0,1.0,-35.0,700.0,115.0,-342.0,89.0,3
1042,32.0,-43.0,29.0,88.0,-7.0,584.0,134.0,-195.0,100.0,3
1043,16.0,-15.0,32.0,181.0,13.0,481.0,78.0,-70.0,103.0,3
1044,5.0,2.0,32.0,274.0,7.0,397.0,44.0,15.0,101.0,3
1045,-11.0,19.0,21.0,357.0,-40.0,325.0,-26.0,75.0,78.0,3
1046,-31.0,31.0,3.0,406.0,-112.0,237.0,-90.0,116.0,21.0,3
1047,-43.0,36.0,-7.0,420.0,-183.0,138.0,-151.0,127.0,-58.0,3
1048,-53.0,31.0,-25.0,411.0,-242.0,51.0,-216.0,113.0,-124.0,3
1049,-62.0,24.0,-33.0,375.0,-274.0,-15.0,-248.0,63.0,-161.0,3
1050,-77.0,1.0,-44.0,330.0,-282.0,-62.0,-303.0,-2.0,-202.0,3
1051,-82.0,-26.0,-40.0,284.0,-256.0,-87.0,-332.0,-119.0,-189.0,3
1052,-88.0,-48.0,-25.0,233.0,-198.0,-79.0,-350.0,-189.0,-135.0,3
1053,-100.0,-66.0,-6.0,233.0,-157.0,-84.0,-379.0,-259.0,-65.0,3
1054,-97.0,-84.0,0.0,286.0,-160.0,-85.0,-357.0,-334.0,-33.0,3
1055,-85.0,-93.0,5.0,344.0,-202.0,-96.0,-323.0,-364.0,-10.0,3
1056,-71.0,-101.0,22.0,405.0,-256.0,-112.0,-279.0,-380.0,41.0,3
1057,-56.0,-101.0,41.0,495.0,-310.0,-130.0,-223.0,-387.0,110.0,3
1058,-39.0,-97.0,49.0,626.0,-351.0,-147.0,-149.0,-369.0,171.0,3
1059,-17.0,-90.0,59.0,757.0,-383.0,-157.0,-42.0,-338.0,208.0,3
1060,5.0,-85.0,61.0,929.0,-402.0,-166.0,30.0,-308.0,229.0,3
1061,14.0,-68.0,64.0,1080.0,-405.0,-181.0,77.0,-266.0,222.0,3
1062,24.0,-60.0,56.0,1192.0,-397.0,-187.0,85.0,-226.0,200.0,3
1063,18.0,-46.0,46.0,1248.0,-379.0,-187.0,74.0,-197.0,158.0,3
1064,9.0,-43.0,30.0,1242.0,-364.0,-177.0,57.0,-189.0,104.0,3
1065,1.0,-55.0,10.0,1189.0,-374.0,-163.0,20.0,-220.0,32.0,3
1066,-32.0,-65.0,-21.0,1091.0,-425.0,-135.0,-106.0,-290.0,-108.0,3
1067,-83.0,-95.0,-103.0,919.0,-521.0,-71.0,-265.0,-402.0,-340.0,3
1068,-115.0,-127.0,-182.0,613.0,-634.0,37.0,-413.0,-541.0,-661.0,3
1069,-142.0,-169.0,-256.0,154.0,-663.0,167.0,-526.0,-690.0,-1038.0,3
1070,-144.0,-231.0,-314.0,-395.0,-539.0,329.0,-565.0,-956.0,-1299.0,3
1071,-117.0,-327.0,-316.0,-916.0,-389.0,491.0,-441.0,-1287.0,-1332.0,3
1072,-69.0,-439.0,-255.0,-1229.0,-344.0,649.0,-246.0,-1669.0,-1117.0,3
1073,-44.0,-528.0,-157.0,-1302.0,-348.0,800.0,-155.0,-2043.0,-732.0,3
1074,-17.0,-598.0,-39.0,-1287.0,-231.0,988.0,-63.0,-2329.0,-264.0,3
1075,17.0,-634.0,98.0,-1308.0,21.0,1120.0,101.0,-2481.0,280.0,3
1076,-16.0,-626.0,215.0,-1303.0,198.0,1055.0,33.0,-2441.0,775.0,3
1077,-72.0,-578.0,271.0,-1129.0,160.0,889.0,-177.0,-2246.0,1014.0,3
1078,-81.0,-528.0,251.0,-724.0,-96.0,780.0,-225.0,-2029.0,1000.0,3
1079,-39.0,-488.0,184.0,-179.0,-483.0,732.0,-115.0,-1866.0,734.0,3
1080,37.0,-469.0,95.0,345.0,-822.0,687.0,140.0,-1781.0,311.0,3
1081,107.0,-466.0,12.0,721.0,-970.0,641.0,456.0,-1809.0,20.0,3
1082,162.0,-461.0,-20.0,886.0,-866.0,539.0,623.0,-1799.0,-104.0,3
1083,161.0,-430.0,-11.0,846.0,-544.0,315.0,605.0,-1710.0,-58.0,3
1084,134.0,-401.0,17.0,664.0,-161.0,47.0,499.0,-1603.0,53.0,3
1085,92.0,-381.0,45.0,428.0,130.0,-192.0,380.0,-1522.0,156.0,3
1086,58.0,-375.0,60.0,174.0,281.0,-378.0,262.0,-1501.0,204.0,3
1087,33.0,-378.0,56.0,-96.0,316.0,-532.0,171.0,-1517.0,201.0,3
1088,15.0,-389.0,45.0,-383.0,288.0,-671.0,104.0,-1565.0,162.0,3
1089,8.0,-409.0,35.0,-643.0,247.0,-802.0,69.0,-1624.0,115.0,3
1090,7.0,-433.0,28.0,-816.0,225.0,-908.0,70.0,-1698.0,89.0,3
1091,6.0,-450.0,33.0,-884.0,235.0,-988.0,54.0,-1773.0,102.0,3
1092,9.0,-469.0,49.0,-866.0,267.0,-1045.0,53.0,-1822.0,155.0,3
1093,10.0,-476.0,71.0,-784.0,325.0,-1093.0,80.0,-1832.0,251.0,3
1094,12.0,-468.0,99.0,-654.0,415.0,-1136.0,83.0,-1823.0,361.0,3
1095,7.0,-463.0,120.0,-492.0,519.0,-1163.0,74.0,-1807.0,437.0,3
1096,-2.0,-460.0,131.0,-336.0,593.0,-1170.0,35.0,-1806.0,475.0,3
1097,-13.0,-463.0,126.0,-235.0,620.0,-1153.0,3.0,-1825.0,479.0,3
1098,-16.0,-464.0,123.0,-202.0,604.0,-1119.0,-13.0,-1830.0,458.0,3
1099,-16.0,-457.0,122.0,-201.0,568.0,-1090.0,-10.0,-1825.0,451.0,3
1100,0.0,-453.0,113.0,-205.0,543.0,-1078.0,30.0,-1789.0,424.0,3
1101,11.0,-448.0,112.0,-194.0,537.0,-1095.0,69.0,-1751.0,412.0,3
1102,19.0,-433.0,105.0,-132.0,542.0,-1136.0,110.0,-1665.0,396.0,3
1103,34.0,-421.0,98.0,-20.0,548.0,-1179.0,171.0,-1627.0,355.0,3
1104,46.0,-406.0,94.0,112.0,557.0,-1218.0,224.0,-1578.0,317.0,3
1105,56.0,-386.0,82.0,246.0,584.0,-1252.0,243.0,-1502.0,281.0,3
1106,58.0,-359.0,72.0,328.0,619.0,-1285.0,256.0,-1420.0,254.0,3
1107,56.0,-341.0,78.0,354.0,664.0,-1310.0,239.0,-1338.0,287.0,3
1108,52.0,-326.0,89.0,370.0,731.0,-1324.0,235.0,-1280.0,312.0,3
1109,36.0,-304.0,83.0,337.0,767.0,-1342.0,193.0,-1218.0,313.0,3
1110,23.0,-285.0,83.0,230.0,743.0,-1347.0,142.0,-1146.0,314.0,3
1111,14.0,-269.0,87.0,99.0,666.0,-1332.0,92.0,-1085.0,320.0,3
1112,4.0,-256.0,87.0,-4.0,572.0,-1303.0,59.0,-1010.0,327.0,3
1113,0.0,-238.0,89.0,-59.0,481.0,-1260.0,31.0,-919.0,331.0,3
1114,-8.0,-219.0,87.0,-72.0,413.0,-1209.0,-15.0,-831.0,334.0,3
1115,-16.0,-191.0,95.0,-30.0,375.0,-1147.0,-53.0,-727.0,336.0,3
1116,-25.0,-152.0,86.0,79.0,377.0,-1071.0,-94.0,-605.0,326.0,3
1117,-30.0,-121.0,86.0,252.0,409.0,-997.0,-102.0,-484.0,318.0,3
1118,-36.0,-88.0,89.0,436.0,432.0,-934.0,-117.0,-342.0,320.0,3
1119,-36.0,-56.0,81.0,628.0,424.0,-874.0,-128.0,-231.0,291.0,3
1120,-40.0,-24.0,66.0,803.0,373.0,-831.0,-139.0,-114.0,251.0,3
1121,-36.0,7.0,48.0,914.0,289.0,-810.0,-126.0,2.0,184.0,3
1122,-25.0,30.0,17.0,955.0,203.0,-785.0,-105.0,91.0,83.0,3
1123,-19.0,54.0,-9.0,926.0,148.0,-752.0,-79.0,168.0,-19.0,3
1124,-13.0,64.0,-26.0,843.0,139.0,-709.0,-59.0,227.0,-132.0,3
1125,0.0,62.0,-35.0,727.0,165.0,-649.0,-23.0,238.0,-166.0,3
1126,7.0,52.0,-34.0,608.0,207.0,-567.0,12.0,199.0,-172.0,3
1127,1.0,32.0,-39.0,492.0,250.0,-490.0,2.0,114.0,-169.0,3
1128,20.0,4.0,-21.0,378.0,293.0,-412.0,72.0,14.0,-104.0,3
1129,19.0,-27.0,-12.0,310.0,337.0,-345.0,93.0,-107.0,-68.0,3
1130,22.0,-57.0,-8.0,246.0,375.0,-273.0,96.0,-216.0,-61.0,3
1131,14.0,-78.0,-13.0,199.0,388.0,-189.0,74.0,-298.0,-78.0,3
1132,4.0,-90.0,-7.0,190.0,368.0,-99.0,36.0,-348.0,-61.0,3
1133,-3.0,-101.0,-5.0,264.0,319.0,-12.0,8.0,-379.0,-54.0,3
1134,-8.0,-100.0,0.0,437.0,272.0,68.0,-14.0,-374.0,-30.0,3
1135,-10.0,-90.0,5.0,666.0,252.0,124.0,-29.0,-326.0,14.0,3
1136,-16.0,-79.0,18.0,893.0,252.0,185.0,-42.0,-278.0,47.0,3
1137,-11.0,-64.0,22.0,1095.0,255.0,244.0,-25.0,-233.0,68.0,3
1138,-1.0,-57.0,22.0,1253.0,244.0,296.0,15.0,-200.0,68.0,3
1139,12.0,-49.0,18.0,1352.0,227.0,336.0,53.0,-186.0,37.0,3
1140,25.0,-44.0,10.0,1370.0,216.0,355.0,100.0,-182.0,7.0,3
1141,39.0,-46.0,-10.0,1314.0,214.0,363.0,147.0,-203.0,-42.0,3
1142,66.0,-67.0,-37.0,1191.0,212.0,391.0,254.0,-264.0,-133.0,3
1143,114.0,-102.0,-88.0,996.0,188.0,422.0,410.0,-404.0,-322.0,3
1144,175.0,-152.0,-142.0,685.0,163.0,420.0,628.0,-589.0,-554.0,3
1145,227.0,-205.0,-189.0,260.0,216.0,343.0,831.0,-785.0,-749.0,3
1146,245.0,-264.0,-217.0,-199.0,427.0,196.0,912.0,-1055.0,-909.0,3
1147,235.0,-340.0,-189.0,-545.0,798.0,56.0,911.0,-1302.0,-830.0,3
1148,233.0,-437.0,-88.0,-701.0,1177.0,-44.0,935.0,-1660.0,-426.0,3
1149,214.0,-520.0,56.0,-703.0,1385.0,-158.0,934.0,-2012.0,136.0,3
1150,169.0,-562.0,172.0,-701.0,1301.0,-374.0,774.0,-2203.0,604.0,3
1151,129.0,-561.0,209.0,-789.0,990.0,-630.0,617.0,-2249.0,804.0,3
1152,143.0,-568.0,207.0,-956.0,691.0,-761.0,605.0,-2249.0,818.0,3
1153,159.0,-580.0,190.0,-1098.0,569.0,-768.0,673.0,-2261.0,754.0,3
1154,118.0,-583.0,135.0,-1040.0,545.0,-803.0,545.0,-2238.0,558.0,3
1155,54.0,-576.0,95.0,-724.0,517.0,-861.0,296.0,-2163.0,365.0,3
1156,-7.0,-547.0,45.0,-199.0,479.0,-853.0,47.0,-2068.0,163.0,3
1157,-81.0,-502.0,8.0,446.0,455.0,-768.0,-324.0,-1865.0,-14.0,3
1158,-144.0,-437.0,6.0,1044.0,496.0,-643.0,-572.0,-1673.0,6.0,3
1159,-192.0,-361.0,36.0,1391.0,540.0,-532.0,-713.0,-1437.0,125.0,3
1160,-206.0,-289.0,73.0,1419.0,482.0,-439.0,-752.0,-1203.0,265.0,3
1161,-206.0,-238.0,90.0,1191.0,313.0,-319.0,-752.0,-1028.0,352.0,3
1162,-187.0,-222.0,92.0,768.0,102.0,-123.0,-692.0,-983.0,338.0,3
1163,-152.0,-242.0,70.0,226.0,-46.0,135.0,-573.0,-1063.0,265.0,3
1164,-123.0,-279.0,49.0,-337.0,-80.0,405.0,-460.0,-1182.0,175.0,3
1165,-96.0,-340.0,34.0,-831.0,-35.0,650.0,-370.0,-1348.0,132.0,3
1166,-72.0,-393.0,53.0,-1191.0,27.0,864.0,-268.0,-1528.0,177.0,3
1167,-61.0,-436.0,79.0,-1393.0,54.0,1035.0,-202.0,-1686.0,254.0,3
1168,-53.0,-469.0,108.0,-1450.0,29.0,1170.0,-155.0,-1829.0,393.0,3
1169,-50.0,-491.0,132.0,-1382.0,-48.0,1275.0,-134.0,-1908.0,489.0,3
1170,-45.0,-512.0,142.0,-1224.0,-172.0,1359.0,-102.0,-1986.0,532.0,3
1171,-32.0,-525.0,141.0,-1019.0,-326.0,1403.0,-56.0,-2038.0,522.0,3
1172,-16.0,-526.0,128.0,-821.0,-461.0,1386.0,-10.0,-2059.0,497.0,3
1173,2.0,-522.0,119.0,-653.0,-540.0,1341.0,64.0,-2042.0,428.0,3
1174,22.0,-503.0,100.0,-508.0,-571.0,1279.0,120.0,-1976.0,376.0,3
1175,39.0,-473.0,101.0,-360.0,-572.0,1225.0,190.0,-1846.0,375.0,3
1176,49.0,-431.0,103.0,-185.0,-557.0,1209.0,227.0,-1684.0,375.0,3
1177,57.0,-380.0,94.0,-13.0,-520.0,1241.0,248.0,-1500.0,363.0,3
1178,65.0,-328.0,85.0,106.0,-450.0,1307.0,278.0,-1327.0,327.0,3
1179,67.0,-283.0,73.0,118.0,-374.0,1372.0,290.0,-1127.0,270.0,3
1180,68.0,-250.0,72.0,16.0,-312.0,1420.0,281.0,-995.0,266.0,3
1181,64.0,-224.0,66.0,-158.0,-254.0,1450.0,266.0,-934.0,249.0,3
1182,61.0,-223.0,57.0,-388.0,-201.0,1467.0,247.0,-921.0,209.0,3
1183,49.0,-242.0,46.0,-670.0,-144.0,1474.0,205.0,-988.0,166.0,3
1184,31.0,-261.0,47.0,-984.0,-84.0,1454.0,141.0,-1081.0,162.0,3
1185,15.0,-285.0,65.0,-1270.0,-29.0,1420.0,98.0,-1154.0,236.0,3
1186,0.0,-312.0,86.0,-1442.0,5.0,1377.0,34.0,-1225.0,318.0,3
1187,-9.0,-332.0,106.0,-1459.0,21.0,1329.0,-7.0,-1276.0,393.0,3
1188,-17.0,-337.0,109.0,-1321.0,23.0,1264.0,-38.0,-1295.0,398.0,3
1189,-20.0,-320.0,100.0,-1103.0,12.0,1184.0,-46.0,-1243.0,383.0,3
1190,-14.0,-290.0,89.0,-855.0,-8.0,1076.0,-39.0,-1107.0,321.0,3
1191,-8.0,-247.0,71.0,-589.0,-8.0,943.0,-20.0,-953.0,255.0,3
1192,-7.0,-202.0,58.0,-328.0,21.0,820.0,-13.0,-760.0,212.0,3
1193,-15.0,-142.0,53.0,-81.0,67.0,700.0,-47.0,-570.0,184.0,3
1194,-21.0,-94.0,49.0,129.0,110.0,576.0,-77.0,-379.0,166.0,3
1195,-28.0,-46.0,42.0,284.0,131.0,461.0,-99.0,-190.0,154.0,3
1196,-30.0,-7.0,37.0,385.0,124.0,365.0,-115.0,-42.0,130.0,3
1197,-35.0,20.0,25.0,423.0,104.0,285.0,-126.0,45.0,77.0,3
1198,-39.0,36.0,16.0,392.0,77.0,200.0,-144.0,108.0,37.0,3
1199,-51.0,33.0,8.0,320.0,35.0,114.0,-185.0,115.0,11.0,3
1200,-63.0,27.0,12.0,248.0,-8.0,11.0,-231.0,79.0,23.0,3
1201,-72.0,5.0,21.0,169.0,-66.0,-85.0,-270.0,3.0,49.0,3
1202,-80.0,-10.0,14.0,132.0,-145.0,-153.0,-287.0,-54.0,46.0,3
1203,-76.0,-35.0,12.0,143.0,-221.0,-187.0,-279.0,-156.0,28.0,3
1204,-74.0,-62.0,2.0,198.0,-309.0,-202.0,-286.0,-239.0,-4.0,3
1205,-79.0,-74.0,-3.0,278.0,-380.0,-209.0,-308.0,-294.0,-28.0,3
1206,-84.0,-84.0,-3.0,384.0,-442.0,-211.0,-317.0,-330.0,-21.0,3
1207,-80.0,-92.0,-3.0,513.0,-499.0,-196.0,-311.0,-353.0,-49.0,3
1208,-84.0,-92.0,0.0,627.0,-542.0,-167.0,-318.0,-354.0,-11.0,3
1209,-72.0,-85.0,28.0,735.0,-562.0,-139.0,-269.0,-331.0,56.0,3
1210,-65.0,-74.0,35.0,870.0,-592.0,-154.0,-247.0,-281.0,106.0,3
1211,-51.0,-63.0,31.0,1015.0,-630.0,-168.0,-191.0,-236.0,113.0,3
1212,-33.0,-43.0,33.0,1123.0,-663.0,-179.0,-111.0,-178.0,122.0,3
1213,-18.0,-38.0,39.0,1193.0,-683.0,-188.0,-59.0,-150.0,133.0,3
1214,-11.0,-32.0,43.0,1244.0,-690.0,-211.0,-34.0,-133.0,147.0,3
1215,-20.0,-33.0,41.0,1277.0,-691.0,-235.0,-57.0,-134.0,132.0,3
1216,-25.0,-40.0,27.0,1284.0,-698.0,-242.0,-82.0,-162.0,94.0,3
1217,-29.0,-52.0,9.0,1271.0,-712.0,-244.0,-99.0,-211.0,22.0,3
1218,-39.0,-63.0,-4.0,1233.0,-725.0,-249.0,-135.0,-253.0,-40.0,3
1219,-76.0,-69.0,-39.0,1170.0,-758.0,-243.0,-240.0,-313.0,-134.0,3
1220,-126.0,-90.0,-97.0,1030.0,-847.0,-207.0,-420.0,-396.0,-338.0,3
1221,-182.0,-109.0,-188.0,738.0,-983.0,-124.0,-653.0,-499.0,-681.0,3
1222,-226.0,-140.0,-293.0,244.0,-1043.0,9.0,-879.0,-645.0,-1212.0,3
1223,-229.0,-219.0,-363.0,-408.0,-986.0,203.0,-877.0,-948.0,-1515.0,3
1224,-198.0,-325.0,-362.0,-1017.0,-971.0,405.0,-732.0,-1305.0,-1521.0,3
1225,-153.0,-444.0,-278.0,-1330.0,-1079.0,618.0,-575.0,-1716.0,-1208.0,3
1226,-129.0,-529.0,-179.0,-1371.0,-1097.0,845.0,-518.0,-2095.0,-785.0,3
1227,-36.0,-612.0,-60.0,-1441.0,-863.0,1137.0,-149.0,-2461.0,-313.0,3
1228,39.0,-664.0,69.0,-1718.0,-511.0,1324.0,171.0,-2660.0,209.0,3
1229,35.0,-678.0,213.0,-2018.0,-238.0,1245.0,197.0,-2648.0,782.0,3
1230,-5.0,-655.0,321.0,-2012.0,-146.0,1028.0,84.0,-2503.0,1228.0,3
1231,-15.0,-604.0,349.0,-1594.0,-323.0,840.0,66.0,-2287.0,1358.0,3
1232,21.0,-573.0,256.0,-891.0,-748.0,740.0,201.0,-2154.0,1060.0,3
1233,101.0,-575.0,138.0,-133.0,-1173.0,718.0,430.0,-2153.0,459.0,3
1234,192.0,-585.0,33.0,506.0,-1399.0,729.0,799.0,-2268.0,43.0,3
1235,255.0,-597.0,-43.0,910.0,-1328.0,653.0,1008.0,-2311.0,-219.0,3
1236,262.0,-564.0,-59.0,1017.0,-996.0,407.0,1004.0,-2196.0,-255.0,3
1237,215.0,-503.0,-24.0,886.0,-558.0,52.0,820.0,-1983.0,-106.0,3
1238,125.0,-425.0,40.0,614.0,-169.0,-281.0,555.0,-1748.0,102.0,3
1239,54.0,-377.0,84.0,268.0,78.0,-532.0,303.0,-1564.0,273.0,3
1240,7.0,-350.0,104.0,-102.0,126.0,-702.0,118.0,-1441.0,372.0,3
1241,-14.0,-342.0,89.0,-436.0,34.0,-810.0,0.0,-1382.0,354.0,3
1242,-17.0,-349.0,58.0,-677.0,-63.0,-876.0,-32.0,-1392.0,237.0,3
1243,-10.0,-359.0,34.0,-833.0,-98.0,-921.0,-22.0,-1417.0,122.0,3
1244,-18.0,-370.0,20.0,-918.0,-73.0,-961.0,-36.0,-1460.0,59.0,3
1245,-20.0,-378.0,37.0,-944.0,1.0,-996.0,-74.0,-1476.0,106.0,3
1246,-36.0,-378.0,61.0,-903.0,110.0,-1026.0,-108.0,-1481.0,200.0,3
1247,-44.0,-382.0,89.0,-805.0,210.0,-1051.0,-144.0,-1483.0,317.0,3
1248,-51.0,-384.0,110.0,-693.0,281.0,-1072.0,-163.0,-1503.0,403.0,3
1249,-57.0,-389.0,125.0,-610.0,318.0,-1081.0,-184.0,-1534.0,461.0,3
1250,-61.0,-399.0,136.0,-593.0,318.0,-1062.0,-199.0,-1591.0,495.0,3
1251,-67.0,-413.0,137.0,-627.0,290.0,-1036.0,-219.0,-1642.0,521.0,3
1252,-66.0,-426.0,141.0,-698.0,231.0,-1023.0,-208.0,-1691.0,528.0,3
1253,-46.0,-441.0,137.0,-774.0,147.0,-1031.0,-133.0,-1732.0,517.0,3
1254,-21.0,-449.0,137.0,-806.0,65.0,-1062.0,-46.0,-1755.0,523.0,3
1255,3.0,-448.0,137.0,-740.0,18.0,-1114.0,52.0,-1761.0,501.0,3
1256,26.0,-449.0,124.0,-606.0,8.0,-1170.0,148.0,-1736.0,477.0,3
1257,43.0,-448.0,124.0,-433.0,35.0,-1220.0,210.0,-1729.0,458.0,3
1258,58.0,-446.0,112.0,-255.0,103.0,-1251.0,268.0,-1720.0,416.0,3
1259,60.0,-424.0,99.0,-119.0,172.0,-1272.0,257.0,-1648.0,367.0,3
1260,60.0,-407.0,99.0,-18.0,214.0,-1285.0,272.0,-1578.0,378.0,3
1261,55.0,-376.0,98.0,69.0,216.0,-1291.0,248.0,-1463.0,365.0,3
1262,38.0,-338.0,96.0,127.0,190.0,-1277.0,209.0,-1327.0,360.0,3
1263,29.0,-297.0,110.0,157.0,148.0,-1252.0,156.0,-1193.0,390.0,3
1264,9.0,-260.0,125.0,177.0,107.0,-1212.0,95.0,-1052.0,425.0,3
1265,-1.0,-222.0,126.0,189.0,67.0,-1162.0,34.0,-920.0,468.0,3
1266,-19.0,-186.0,125.0,195.0,21.0,-1102.0,-35.0,-772.0,476.0,3
1267,-37.0,-143.0,113.0,198.0,-33.0,-1022.0,-121.0,-576.0,436.0,3
1268,-41.0,-105.0,97.0,210.0,-79.0,-925.0,-152.0,-416.0,371.0,3
1269,-43.0,-66.0,79.0,238.0,-109.0,-827.0,-166.0,-274.0,294.0,3
1270,-44.0,-34.0,62.0,287.0,-107.0,-735.0,-168.0,-151.0,230.0,3
1271,-36.0,-10.0,45.0,341.0,-85.0,-655.0,-139.0,-66.0,169.0,3
1272,-19.0,6.0,27.0,378.0,-62.0,-596.0,-82.0,6.0,96.0,3
1273,1.0,22.0,4.0,381.0,-47.0,-549.0,0.0,62.0,5.0,3
1274,20.0,34.0,-16.0,301.0,-38.0,-493.0,60.0,115.0,-64.0,3
1275,35.0,36.0,-29.0,206.0,-19.0,-440.0,134.0,126.0,-123.0,3
1276,56.0,33.0,-24.0,100.0,1.0,-378.0,196.0,121.0,-132.0,3
1277,56.0,26.0,-17.0,5.0,21.0,-312.0,223.0,100.0,-100.0,3
1278,56.0,12.0,-13.0,-66.0,41.0,-237.0,225.0,39.0,-81.0,3
1279,64.0,-13.0,-3.0,-101.0,39.0,-147.0,269.0,-45.0,-32.0,3
1280,63.0,-33.0,2.0,-84.0,32.0,-55.0,266.0,-122.0,-14.0,3
1281,59.0,-56.0,0.0,-14.0,35.0,30.0,237.0,-211.0,-31.0,3
1282,52.0,-74.0,-9.0,69.0,49.0,112.0,206.0,-286.0,-70.0,3
1283,36.0,-91.0,-12.0,145.0,63.0,183.0,156.0,-342.0,-68.0,3
1284,25.0,-102.0,-10.0,238.0,72.0,239.0,111.0,-371.0,-74.0,3
1285,13.0,-102.0,-6.0,373.0,81.0,292.0,67.0,-380.0,-55.0,3
1286,8.0,-99.0,2.0,547.0,103.0,342.0,43.0,-363.0,-25.0,3
1287,1.0,-88.0,6.0,742.0,133.0,383.0,19.0,-320.0,-1.0,3
1288,-4.0,-65.0,12.0,932.0,164.0,418.0,-2.0,-236.0,30.0,3
1289,-6.0,-42.0,14.0,1092.0,184.0,454.0,-20.0,-166.0,27.0,3
1290,-4.0,-27.0,5.0,1201.0,191.0,492.0,-17.0,-117.0,0.0,3
1291,3.0,-23.0,-9.0,1241.0,193.0,522.0,24.0,-99.0,-44.0,3
1292,16.0,-19.0,-24.0,1202.0,189.0,533.0,62.0,-97.0,-106.0,3
1293,23.0,-25.0,-41.0,1091.0,189.0,531.0,98.0,-119.0,-175.0,3
1294,40.0,-45.0,-64.0,927.0,194.0,536.0,153.0,-186.0,-264.0,3
1295,73.0,-75.0,-114.0,729.0,199.0,544.0,273.0,-322.0,-440.0,3
1296,116.0,-120.0,-171.0,451.0,208.0,505.0,420.0,-487.0,-669.0,3
1297,156.0,-162.0,-227.0,64.0,280.0,387.0,571.0,-666.0,-909.0,3
1298,167.0,-216.0,-277.0,-398.0,486.0,200.0,608.0,-835.0,-1140.0,3
1299,153.0,-291.0,-276.0,-810.0,828.0,19.0,570.0,-1155.0,-1168.0,3
1300,136.0,-394.0,-173.0,-1013.0,1209.0,-102.0,535.0,-1508.0,-747.0,3
1301,100.0,-493.0,-3.0,-955.0,1499.0,-208.0,445.0,-1893.0,-56.0,3
1302,48.0,-542.0,157.0,-775.0,1532.0,-401.0,315.0,-2105.0,573.0,3
1303,28.0,-553.0,263.0,-610.0,1219.0,-635.0,247.0,-2155.0,990.0,3
1304,65.0,-541.0,289.0,-497.0,754.0,-793.0,336.0,-2131.0,1133.0,3
1305,123.0,-532.0,271.0,-436.0,435.0,-840.0,516.0,-2082.0,1066.0,3
1306,139.0,-524.0,207.0,-351.0,364.0,-796.0,583.0,-2048.0,839.0,3
1307,106.0,-516.0,149.0,-174.0,439.0,-718.0,457.0,-1995.0,598.0,3
1308,56.0,-502.0,83.0,122.0,555.0,-615.0,274.0,-1910.0,335.0,3
1309,9.0,-487.0,23.0,478.0,627.0,-466.0,100.0,-1870.0,88.0,3
1310,-52.0,-467.0,0.0,797.0,651.0,-314.0,-153.0,-1812.0,-45.0,3
1311,-115.0,-444.0,18.0,971.0,722.0,-212.0,-466.0,-1723.0,43.0,3
1312,-174.0,-394.0,67.0,974.0,796.0,-134.0,-620.0,-1612.0,212.0,3
1313,-208.0,-359.0,97.0,854.0,763.0,-55.0,-750.0,-1485.0,353.0,3
1314,-206.0,-335.0,111.0,652.0,589.0,72.0,-749.0,-1407.0,414.0,3
1315,-184.0,-332.0,79.0,376.0,337.0,232.0,-684.0,-1382.0,314.0,3
1316,-152.0,-337.0,49.0,47.0,146.0,399.0,-583.0,-1407.0,197.0,3
1317,-118.0,-359.0,45.0,-297.0,71.0,570.0,-464.0,-1453.0,141.0,3
1318,-84.0,-380.0,54.0,-613.0,75.0,727.0,-320.0,-1522.0,168.0,3
1319,-62.0,-396.0,81.0,-848.0,108.0,865.0,-223.0,-1587.0,247.0,3
1320,-52.0,-423.0,100.0,-988.0,141.0,978.0,-168.0,-1636.0,327.0,3
1321,-55.0,-436.0,105.0,-1031.0,143.0,1075.0,-151.0,-1706.0,411.0,3
1322,-56.0,-449.0,126.0,-997.0,82.0,1151.0,-133.0,-1760.0,454.0,3
1323,-50.0,-467.0,125.0,-904.0,-40.0,1207.0,-109.0,-1809.0,456.0,3
1324,-21.0,-468.0,123.0,-784.0,-179.0,1235.0,-36.0,-1862.0,438.0,3
1325,7.0,-470.0,108.0,-662.0,-300.0,1221.0,46.0,-1887.0,410.0,3
1326,18.0,-484.0,91.0,-543.0,-376.0,1179.0,130.0,-1873.0,376.0,3
1327,26.0,-477.0,96.0,-435.0,-411.0,1128.0,198.0,-1817.0,341.0,3
1328,63.0,-440.0,106.0,-337.0,-420.0,1085.0,231.0,-1732.0,336.0,3
1329,49.0,-416.0,87.0,-229.0,-405.0,1061.0,241.0,-1637.0,327.0,3
1330,52.0,-387.0,82.0,-135.0,-372.0,1051.0,239.0,-1517.0,301.0,3
1331,40.0,-349.0,72.0,-83.0,-328.0,1041.0,191.0,-1391.0,268.0,3
1332,24.0,-317.0,66.0,-76.0,-273.0,1038.0,132.0,-1218.0,254.0,3
1333,0.0,-285.0,72.0,-88.0,-217.0,1044.0,10.0,-1129.0,258.0,3
1334,-23.0,-276.0,74.0,-116.0,-164.0,1062.0,-91.0,-1099.0,271.0,3
1335,-41.0,-275.0,79.0,-186.0,-125.0,1085.0,-174.0,-1092.0,288.0,3
1336,-72.0,-272.0,92.0,-313.0,-117.0,1093.0,-252.0,-1096.0,332.0,3
1337,-91.0,-281.0,106.0,-483.0,-134.0,1089.0,-329.0,-1115.0,363.0,3
1338,-99.0,-283.0,110.0,-654.0,-155.0,1061.0,-377.0,-1137.0,388.0,3
1339,-81.0,-290.0,95.0,-758.0,-169.0,1036.0,-331.0,-1151.0,393.0,3
1340,-75.0,-300.0,100.0,-792.0,-179.0,1014.0,-269.0,-1164.0,382.0,3
1341,-57.0,-296.0,94.0,-723.0,-169.0,992.0,-207.0,-1152.0,353.0,3
1342,-36.0,-271.0,91.0,-571.0,-142.0,963.0,-132.0,-1078.0,325.0,3
1343,-7.0,-254.0,66.0,-379.0,-106.0,932.0,-54.0,-956.0,264.0,3
1344,10.0,-209.0,59.0,-215.0,-88.0,880.0,47.0,-825.0,210.0,3
1345,28.0,-167.0,40.0,-79.0,-84.0,815.0,128.0,-658.0,143.0,3
1346,39.0,-123.0,19.0,27.0,-88.0,712.0,168.0,-479.0,64.0,3
1347,48.0,-77.0,2.0,96.0,-101.0,601.0,200.0,-317.0,5.0,3
1348,51.0,-42.0,0.0,128.0,-113.0,492.0,204.0,-183.0,-49.0,3
1349,49.0,-27.0,-8.0,115.0,-122.0,370.0,182.0,-68.0,-87.0,3
1350,30.0,-1.0,-19.0,54.0,-127.0,250.0,145.0,6.0,-85.0,3
1351,29.0,10.0,-11.0,-33.0,-124.0,134.0,99.0,26.0,-83.0,3
1352,5.0,6.0,-12.0,-133.0,-109.0,19.0,37.0,5.0,-45.0,3
1353,-7.0,-12.0,15.0,-218.0,-94.0,-84.0,-30.0,-41.0,0.0,3
1354,-24.0,-36.0,23.0,-253.0,-95.0,-162.0,-93.0,-156.0,48.0,3
1355,-46.0,-59.0,24.0,-226.0,-119.0,-209.0,-162.0,-241.0,81.0,3
1356,-51.0,-88.0,32.0,-131.0,-158.0,-216.0,-193.0,-332.0,87.0,3
1357,-54.0,-97.0,19.0,10.0,-198.0,-206.0,-219.0,-384.0,68.0,3
1358,-63.0,-106.0,8.0,177.0,-234.0,-181.0,-235.0,-401.0,58.0,3
1359,-61.0,-105.0,9.0,357.0,-253.0,-148.0,-233.0,-414.0,19.0,3
1360,-68.0,-106.0,7.0,510.0,-263.0,-116.0,-269.0,-391.0,14.0,3
1361,-64.0,-93.0,18.0,632.0,-258.0,-78.0,-239.0,-359.0,50.0,3
1362,-56.0,-75.0,25.0,735.0,-252.0,-70.0,-210.0,-333.0,65.0,3
1363,-42.0,-65.0,25.0,817.0,-254.0,-79.0,-164.0,-277.0,78.0,3
1364,-17.0,-52.0,20.0,866.0,-264.0,-100.0,-97.0,-225.0,81.0,3
1365,-10.0,-42.0,31.0,892.0,-282.0,-127.0,-54.0,-160.0,96.0,3
1366,-16.0,-32.0,36.0,923.0,-302.0,-150.0,-44.0,-128.0,104.0,3
1367,-16.0,-27.0,25.0,952.0,-329.0,-166.0,-46.0,-127.0,77.0,3
1368,-14.0,-35.0,16.0,966.0,-366.0,-172.0,-48.0,-136.0,39.0,3
1369,-21.0,-46.0,5.0,973.0,-400.0,-163.0,-71.0,-178.0,-18.0,3
1370,-43.0,-60.0,-22.0,962.0,-441.0,-136.0,-137.0,-231.0,-102.0,3
1371,-75.0,-69.0,-70.0,893.0,-521.0,-91.0,-257.0,-308.0,-274.0,3
1372,-119.0,-80.0,-153.0,695.0,-652.0,-20.0,-419.0,-395.0,-593.0,3
1373,-144.0,-111.0,-260.0,315.0,-746.0,91.0,-546.0,-502.0,-997.0,3
1374,-147.0,-171.0,-332.0,-192.0,-748.0,251.0,-551.0,-692.0,-1359.0,3
1375,-108.0,-282.0,-336.0,-668.0,-742.0,468.0,-434.0,-991.0,-1475.0,3
1376,-61.0,-376.0,-270.0,-944.0,-785.0,710.0,-193.0,-1499.0,-1156.0,3
1377,-18.0,-469.0,-168.0,-1017.0,-748.0,932.0,-73.0,-1855.0,-712.0,3
1378,10.0,-529.0,-63.0,-1053.0,-491.0,1168.0,36.0,-2110.0,-277.0,3
1379,9.0,-555.0,52.0,-1191.0,-93.0,1355.0,53.0,-2208.0,182.0,3
1380,-6.0,-593.0,162.0,-1330.0,227.0,1378.0,41.0,-2315.0,652.0,3
1381,-41.0,-595.0,239.0,-1358.0,262.0,1239.0,-53.0,-2336.0,973.0,3
1382,-60.0,-592.0,288.0,-1249.0,-10.0,1080.0,-117.0,-2278.0,1085.0,3
1383,-29.0,-573.0,251.0,-936.0,-427.0,958.0,-20.0,-2175.0,999.0,3
1384,58.0,-573.0,175.0,-407.0,-787.0,856.0,278.0,-2165.0,702.0,3
1385,145.0,-569.0,74.0,163.0,-893.0,764.0,604.0,-2172.0,299.0,3
1386,260.0,-580.0,0.0,580.0,-732.0,673.0,963.0,-2247.0,16.0,3
1387,252.0,-571.0,-10.0,723.0,-387.0,452.0,966.0,-2236.0,-109.0,3
1388,186.0,-514.0,22.0,613.0,34.0,136.0,777.0,-2052.0,52.0,3
1389,150.0,-485.0,72.0,427.0,362.0,-146.0,644.0,-1895.0,246.0,3
1390,110.0,-437.0,111.0,266.0,515.0,-377.0,510.0,-1754.0,357.0,3
1391,88.0,-413.0,90.0,124.0,538.0,-556.0,393.0,-1647.0,341.0,3
1392,69.0,-391.0,65.0,-39.0,497.0,-693.0,317.0,-1575.0,250.0,3
1393,55.0,-384.0,38.0,-218.0,457.0,-799.0,258.0,-1523.0,146.0,3
1394,34.0,-374.0,15.0,-374.0,463.0,-884.0,184.0,-1488.0,60.0,3
1395,17.0,-362.0,3.0,-476.0,510.0,-944.0,77.0,-1453.0,18.0,3
1396,-12.0,-360.0,16.0,-527.0,567.0,-978.0,-22.0,-1421.0,37.0,3
1397,-34.0,-351.0,31.0,-528.0,631.0,-998.0,-98.0,-1389.0,97.0,3
1398,-50.0,-347.0,62.0,-496.0,704.0,-1026.0,-168.0,-1341.0,199.0,3
1399,-68.0,-332.0,74.0,-473.0,769.0,-1059.0,-247.0,-1332.0,278.0,3
1400,-77.0,-338.0,89.0,-496.0,810.0,-1073.0,-317.0,-1377.0,342.0,3
1401,-101.0,-357.0,113.0,-568.0,812.0,-1056.0,-332.0,-1446.0,408.0,3
1402,-107.0,-391.0,119.0,-651.0,767.0,-1037.0,-355.0,-1566.0,435.0,3
1403,-99.0,-428.0,115.0,-724.0,694.0,-1014.0,-346.0,-1687.0,438.0,3
1404,-85.0,-448.0,117.0,-769.0,616.0,-1001.0,-288.0,-1795.0,458.0,3
1405,-66.0,-465.0,116.0,-758.0,550.0,-1007.0,-204.0,-1856.0,482.0,3
1406,-39.0,-476.0,127.0,-669.0,488.0,-1032.0,-100.0,-1859.0,496.0,3
1407,-6.0,-474.0,131.0,-544.0,432.0,-1067.0,18.0,-1839.0,495.0,3
1408,31.0,-465.0,126.0,-356.0,381.0,-1099.0,155.0,-1792.0,480.0,3
1409,56.0,-444.0,117.0,-149.0,371.0,-1128.0,284.0,-1693.0,434.0,3
1410,73.0,-415.0,119.0,48.0,389.0,-1172.0,337.0,-1590.0,414.0,3
1411,74.0,-382.0,89.0,233.0,423.0,-1222.0,330.0,-1504.0,383.0,3
1412,64.0,-348.0,83.0,352.0,449.0,-1250.0,300.0,-1403.0,323.0,3
1413,54.0,-312.0,84.0,359.0,431.0,-1266.0,254.0,-1270.0,288.0,3
1414,42.0,-285.0,81.0,293.0,375.0,-1280.0,206.0,-1151.0,279.0,3
1415,35.0,-251.0,84.0,194.0,316.0,-1285.0,151.0,-1020.0,291.0,3
1416,16.0,-216.0,89.0,101.0,280.0,-1276.0,98.0,-891.0,321.0,3
1417,2.0,-180.0,86.0,37.0,264.0,-1249.0,42.0,-752.0,332.0,3
1418,-18.0,-134.0,75.0,-4.0,250.0,-1202.0,-31.0,-577.0,300.0,3
1419,-39.0,-88.0,67.0,-44.0,232.0,-1124.0,-125.0,-414.0,253.0,3
1420,-57.0,-58.0,66.0,-72.0,221.0,-1003.0,-228.0,-239.0,233.0,3
1421,-70.0,-33.0,62.0,-75.0,215.0,-873.0,-272.0,-138.0,222.0,3
1422,-77.0,-15.0,59.0,-55.0,210.0,-744.0,-305.0,-63.0,220.0,3
1423,-63.0,-1.0,55.0,-13.0,211.0,-623.0,-243.0,-17.0,202.0,3
1424,-41.0,8.0,44.0,18.0,203.0,-492.0,-148.0,23.0,156.0,3
1425,-8.0,6.0,29.0,50.0,216.0,-354.0,-37.0,30.0,98.0,3
1426,14.0,14.0,14.0,91.0,257.0,-243.0,51.0,50.0,34.0,3
1427,36.0,17.0,2.0,113.0,296.0,-154.0,139.0,63.0,-11.0,3
1428,52.0,21.0,-13.0,107.0,327.0,-84.0,204.0,80.0,-56.0,3
1429,64.0,11.0,-19.0,78.0,350.0,-21.0,255.0,79.0,-94.0,3
1430,71.0,17.0,-19.0,46.0,364.0,40.0,289.0,79.0,-95.0,3
1431,79.0,6.0,-19.0,33.0,377.0,111.0,314.0,30.0,-102.0,3
1432,86.0,-9.0,-13.0,56.0,393.0,189.0,336.0,-48.0,-93.0,3
1433,83.0,-29.0,-11.0,109.0,429.0,264.0,332.0,-108.0,-74.0,3
1434,74.0,-40.0,-24.0,204.0,477.0,320.0,286.0,-157.0,-62.0,3
1435,59.0,-60.0,-10.0,319.0,523.0,376.0,239.0,-214.0,-54.0,3
1436,44.0,-62.0,2.0,445.0,558.0,425.0,200.0,-226.0,-11.0,3
1437,33.0,-64.0,15.0,589.0,584.0,473.0,145.0,-229.0,24.0,3
1438,26.0,-63.0,19.0,755.0,606.0,517.0,114.0,-219.0,48.0,3
1439,18.0,-54.0,24.0,932.0,631.0,561.0,72.0,-199.0,71.0,3
1440,7.0,-46.0,21.0,1103.0,650.0,601.0,53.0,-179.0,79.0,3
1441,14.0,-44.0,15.0,1254.0,660.0,630.0,51.0,-160.0,56.0,3
1442,19.0,-36.0,5.0,1355.0,665.0,644.0,77.0,-156.0,12.0,3
1443,26.0,-43.0,-6.0,1389.0,682.0,644.0,104.0,-178.0,-61.0,3
1444,43.0,-54.0,-36.0,1352.0,703.0,631.0,167.0,-231.0,-163.0,3
1445,68.0,-82.0,-80.0,1239.0,718.0,608.0,275.0,-352.0,-341.0,3
1446,111.0,-124.0,-133.0,1018.0,730.0,555.0,424.0,-503.0,-560.0,3
1447,151.0,-159.0,-199.0,681.0,773.0,439.0,576.0,-673.0,-804.0,3
1448,175.0,-210.0,-255.0,269.0,925.0,259.0,659.0,-841.0,-1047.0,3
1449,168.0,-278.0,-300.0,-142.0,1211.0,51.0,640.0,-1072.0,-1247.0,3
1450,151.0,-373.0,-252.0,-504.0,1552.0,-135.0,604.0,-1430.0,-1108.0,3
1451,128.0,-502.0,-124.0,-739.0,1808.0,-308.0,567.0,-1889.0,-638.0,3
1452,72.0,-597.0,42.0,-846.0,1823.0,-541.0,423.0,-2290.0,181.0,3
1453,13.0,-652.0,186.0,-883.0,1527.0,-841.0,160.0,-2569.0,739.0,3
1454,-6.0,-670.0,258.0,-881.0,1060.0,-1088.0,53.0,-2627.0,1020.0,3
1455,33.0,-669.0,275.0,-837.0,737.0,-1185.0,199.0,-2627.0,1073.0,3
1456,82.0,-659.0,242.0,-751.0,726.0,-1200.0,340.0,-2551.0,923.0,3
1457,55.0,-621.0,174.0,-580.0,927.0,-1194.0,232.0,-2370.0,656.0,3
1458,-9.0,-563.0,88.0,-263.0,1156.0,-1138.0,2.0,-2138.0,320.0,3
1459,-71.0,-514.0,4.0,231.0,1233.0,-990.0,-208.0,-1946.0,-9.0,3
1460,-149.0,-473.0,-55.0,819.0,1110.0,-756.0,-467.0,-1829.0,-227.0,3
1461,-181.0,-422.0,-41.0,1281.0,959.0,-503.0,-646.0,-1704.0,-236.0,3
1462,-187.0,-363.0,1.0,1479.0,862.0,-294.0,-685.0,-1505.0,-74.0,3
1463,-194.0,-305.0,47.0,1429.0,772.0,-147.0,-712.0,-1317.0,143.0,3
1464,-179.0,-263.0,69.0,1155.0,659.0,-13.0,-669.0,-1143.0,266.0,3
1465,-137.0,-251.0,69.0,711.0,537.0,134.0,-523.0,-1089.0,249.0,3
1466,-100.0,-257.0,50.0,162.0,457.0,284.0,-392.0,-1107.0,184.0,3
1467,-65.0,-281.0,38.0,-396.0,444.0,445.0,-251.0,-1174.0,147.0,3
1468,-40.0,-316.0,48.0,-862.0,462.0,606.0,-120.0,-1273.0,155.0,3
1469,-10.0,-351.0,59.0,-1181.0,475.0,750.0,-22.0,-1399.0,197.0,3
1470,-4.0,-386.0,66.0,-1357.0,464.0,866.0,20.0,-1514.0,249.0,3
1471,-5.0,-415.0,80.0,-1411.0,417.0,952.0,27.0,-1610.0,294.0,3
1472,0.0,-444.0,89.0,-1374.0,349.0,1013.0,40.0,-1710.0,332.0,3
1473,-2.0,-464.0,102.0,-1246.0,261.0,1033.0,48.0,-1779.0,369.0,3
1474,1.0,-476.0,103.0,-1060.0,172.0,1021.0,62.0,-1839.0,390.0,3
1475,13.0,-481.0,104.0,-871.0,110.0,975.0,99.0,-1868.0,374.0,3
1476,12.0,-470.0,100.0,-723.0,47.0,907.0,105.0,-1836.0,353.0,3
1477,22.0,-458.0,102.0,-621.0,-6.0,858.0,119.0,-1777.0,374.0,3
1478,16.0,-442.0,108.0,-536.0,-44.0,819.0,115.0,-1717.0,384.0,3
1479,17.0,-422.0,106.0,-454.0,-64.0,815.0,108.0,-1645.0,396.0,3
1480,5.0,-387.0,101.0,-380.0,-64.0,822.0,61.0,-1525.0,388.0,3
1481,-6.0,-358.0,104.0,-307.0,-41.0,837.0,6.0,-1407.0,380.0,3
1482,-17.0,-332.0,101.0,-235.0,1.0,865.0,-65.0,-1311.0,366.0,3
1483,-48.0,-314.0,108.0,-166.0,50.0,895.0,-156.0,-1230.0,402.0,3
1484,-75.0,-304.0,111.0,-102.0,85.0,934.0,-241.0,-1216.0,403.0,3
1485,-89.0,-299.0,109.0,-103.0,80.0,962.0,-311.0,-1211.0,401.0,3
1486,-99.0,-303.0,106.0,-180.0,39.0,969.0,-357.0,-1210.0,393.0,3
1487,-95.0,-307.0,102.0,-295.0,-18.0,960.0,-346.0,-1228.0,386.0,3
1488,-85.0,-316.0,92.0,-403.0,-66.0,942.0,-311.0,-1261.0,347.0,3
1489,-68.0,-319.0,92.0,-481.0,-92.0,920.0,-259.0,-1244.0,334.0,3
1490,-61.0,-306.0,94.0,-479.0,-91.0,874.0,-225.0,-1207.0,355.0,3
1491,-46.0,-297.0,85.0,-387.0,-82.0,834.0,-154.0,-1156.0,322.0,3
1492,-28.0,-273.0,72.0,-264.0,-88.0,801.0,-89.0,-1083.0,264.0,3
1493,-11.0,-236.0,57.0,-161.0,-105.0,747.0,-28.0,-949.0,203.0,3
1494,9.0,-197.0,45.0,-74.0,-125.0,670.0,45.0,-781.0,166.0,3
1495,23.0,-152.0,36.0,43.0,-134.0,578.0,89.0,-607.0,132.0,3
1496,33.0,-111.0,18.0,177.0,-127.0,473.0,142.0,-463.0,47.0,3
1497,32.0,-70.0,5.0,265.0,-103.0,353.0,154.0,-281.0,5.0,3
1498,31.0,-38.0,3.0,291.0,-79.0,218.0,127.0,-162.0,-21.0,3
1499,21.0,-15.0,1.0,283.0,-51.0,85.0,79.0,-47.0,-9.0,3
1500,8.0,2.0,10.0,271.0,-27.0,-20.0,24.0,10.0,12.0,3
1501,-11.0,6.0,15.0,254.0,-16.0,-106.0,-28.0,16.0,40.0,3
1502,-24.0,-2.0,19.0,212.0,-22.0,-186.0,-99.0,-11.0,50.0,3
1503,-40.0,-7.0,24.0,147.0,-43.0,-267.0,-152.0,-42.0,67.0,3
1504,-57.0,-13.0,18.0,87.0,-81.0,-330.0,-195.0,-75.0,64.0,3
1505,-59.0,-27.0,11.0,50.0,-133.0,-365.0,-220.0,-119.0,32.0,3
1506,-63.0,-49.0,4.0,50.0,-189.0,-364.0,-230.0,-182.0,-6.0,3
1507,-66.0,-59.0,-5.0,92.0,-224.0,-344.0,-245.0,-248.0,-75.0,3
1508,-63.0,-78.0,-15.0,160.0,-240.0,-305.0,-246.0,-295.0,-78.0,3
1509,-60.0,-82.0,-7.0,254.0,-241.0,-257.0,-229.0,-305.0,-53.0,3
1510,-56.0,-79.0,-4.0,392.0,-248.0,-245.0,-227.0,-298.0,-56.0,3
1511,-50.0,-66.0,-8.0,544.0,-262.0,-246.0,-195.0,-270.0,-57.0,3
1512,-36.0,-55.0,-5.0,676.0,-281.0,-261.0,-150.0,-215.0,-32.0,3
1513,-21.0,-41.0,5.0,789.0,-305.0,-278.0,-81.0,-157.0,-10.0,3
1514,0.0,-26.0,17.0,895.0,-325.0,-297.0,-12.0,-101.0,25.0,3
1515,10.0,-17.0,21.0,999.0,-328.0,-312.0,37.0,-63.0,65.0,3
1516,6.0,-11.0,24.0,1079.0,-328.0,-313.0,40.0,-50.0,84.0,3
1517,2.0,-11.0,22.0,1115.0,-334.0,-304.0,23.0,-59.0,70.0,3
1518,0.0,-17.0,15.0,1100.0,-355.0,-282.0,18.0,-85.0,30.0,3
1519,-1.0,-25.0,1.0,1047.0,-393.0,-252.0,6.0,-121.0,-19.0,3
1520,-21.0,-40.0,-16.0,975.0,-441.0,-207.0,-44.0,-190.0,-100.0,3
1521,-60.0,-60.0,-60.0,873.0,-520.0,-137.0,-201.0,-276.0,-256.0,3
1522,-120.0,-75.0,-125.0,675.0,-663.0,-20.0,-427.0,-376.0,-516.0,3
1523,-150.0,-104.0,-210.0,317.0,-809.0,161.0,-575.0,-496.0,-867.0,3
1524,-140.0,-156.0,-304.0,-178.0,-814.0,385.0,-556.0,-685.0,-1243.0,3
1525,-98.0,-242.0,-339.0,-683.0,-725.0,621.0,-374.0,-976.0,-1428.0,3
1526,-50.0,-347.0,-300.0,-1039.0,-666.0,853.0,-177.0,-1351.0,-1296.0,3
1527,12.0,-442.0,-190.0,-1198.0,-568.0,1087.0,38.0,-1700.0,-868.0,3
1528,69.0,-514.0,-72.0,-1213.0,-307.0,1322.0,248.0,-2021.0,-386.0,3
1529,115.0,-566.0,49.0,-1288.0,40.0,1507.0,443.0,-2257.0,222.0,3
1530,109.0,-593.0,172.0,-1430.0,324.0,1540.0,430.0,-2343.0,708.0,3
1531,67.0,-609.0,270.0,-1492.0,446.0,1448.0,331.0,-2372.0,1104.0,3
1532,22.0,-605.0,330.0,-1386.0,323.0,1313.0,198.0,-2326.0,1307.0,3
1533,12.0,-592.0,303.0,-1069.0,-21.0,1187.0,180.0,-2257.0,1234.0,3
1534,50.0,-595.0,220.0,-525.0,-415.0,1046.0,254.0,-2230.0,942.0,3
1535,101.0,-597.0,111.0,170.0,-702.0,877.0,415.0,-2244.0,502.0,3
1536,143.0,-596.0,19.0,684.0,-817.0,710.0,548.0,-2286.0,103.0,3
1537,179.0,-584.0,-24.0,1114.0,-677.0,503.0,675.0,-2302.0,-119.0,3
1538,149.0,-524.0,1.0,1241.0,-284.0,200.0,594.0,-2133.0,-61.0,3
1539,86.0,-447.0,66.0,1148.0,175.0,-126.0,398.0,-1852.0,171.0,3
1540,26.0,-384.0,114.0,959.0,439.0,-400.0,186.0,-1543.0,429.0,3
1541,-19.0,-338.0,135.0,739.0,556.0,-575.0,-20.0,-1363.0,522.0,3
1542,-47.0,-309.0,127.0,499.0,462.0,-672.0,-114.0,-1256.0,481.0,3
1543,-51.0,-298.0,86.0,222.0,277.0,-718.0,-150.0,-1223.0,333.0,3
1544,-40.0,-309.0,45.0,-82.0,147.0,-756.0,-140.0,-1259.0,171.0,3
1545,-43.0,-322.0,21.0,-390.0,141.0,-792.0,-155.0,-1309.0,80.0,3
1546,-55.0,-339.0,23.0,-661.0,218.0,-838.0,-192.0,-1352.0,68.0,3
1547,-52.0,-347.0,39.0,-848.0,314.0,-889.0,-179.0,-1381.0,130.0,3
1548,-52.0,-360.0,53.0,-934.0,385.0,-973.0,-182.0,-1423.0,177.0,3
1549,-51.0,-368.0,69.0,-976.0,426.0,-1048.0,-157.0,-1453.0,240.0,3
1550,-56.0,-385.0,99.0,-990.0,461.0,-1104.0,-183.0,-1501.0,357.0,3
1551,-65.0,-405.0,130.0,-956.0,508.0,-1144.0,-223.0,-1612.0,494.0,3
1552,-81.0,-428.0,145.0,-918.0,526.0,-1163.0,-272.0,-1715.0,553.0,3
1553,-87.0,-449.0,154.0,-944.0,464.0,-1178.0,-276.0,-1797.0,586.0,3
1554,-76.0,-475.0,171.0,-1020.0,334.0,-1206.0,-261.0,-1868.0,601.0,3
1555,-64.0,-488.0,153.0,-1082.0,189.0,-1234.0,-181.0,-1937.0,593.0,3
1556,-25.0,-508.0,153.0,-1089.0,81.0,-1257.0,-46.0,-1992.0,580.0,3
1557,10.0,-519.0,150.0,-1008.0,11.0,-1288.0,85.0,-2023.0,566.0,3
1558,46.0,-518.0,133.0,-838.0,-24.0,-1316.0,208.0,-2024.0,517.0,3
1559,63.0,-513.0,114.0,-622.0,-33.0,-1343.0,277.0,-1997.0,431.0,3
1560,64.0,-494.0,93.0,-403.0,-32.0,-1372.0,301.0,-1937.0,364.0,3
1561,58.0,-463.0,75.0,-200.0,-15.0,-1392.0,276.0,-1832.0,287.0,3
1562,47.0,-419.0,63.0,-48.0,3.0,-1402.0,242.0,-1642.0,230.0,3
1563,31.0,-362.0,56.0,39.0,-7.0,-1410.0,174.0,-1442.0,200.0,3
1564,13.0,-303.0,56.0,72.0,-44.0,-1420.0,102.0,-1191.0,191.0,3
1565,-1.0,-240.0,52.0,57.0,-84.0,-1416.0,28.0,-976.0,188.0,3
1566,-13.0,-186.0,60.0,-7.0,-114.0,-1381.0,-35.0,-767.0,210.0,3
1567,-31.0,-133.0,65.0,-91.0,-135.0,-1323.0,-97.0,-551.0,232.0,3
1568,-43.0,-86.0,69.0,-175.0,-158.0,-1240.0,-147.0,-371.0,258.0,3
1569,-55.0,-53.0,67.0,-232.0,-175.0,-1138.0,-202.0,-237.0,253.0,3
1570,-63.0,-33.0,59.0,-272.0,-184.0,-1011.0,-237.0,-164.0,230.0,3
1571,-61.0,-29.0,53.0,-315.0,-181.0,-872.0,-238.0,-130.0,194.0,3
1572,-51.0,-32.0,51.0,-363.0,-165.0,-731.0,-208.0,-126.0,167.0,3
1573,-29.0,-29.0,38.0,-397.0,-150.0,-593.0,-117.0,-129.0,149.0,3
1574,-2.0,-39.0,30.0,-400.0,-136.0,-452.0,-2.0,-163.0,107.0,3
1575,24.0,-46.0,25.0,-335.0,-109.0,-334.0,74.0,-176.0,63.0,3
1576,34.0,-54.0,15.0,-227.0,-80.0,-246.0,142.0,-177.0,35.0,3
1577,50.0,-52.0,12.0,-89.0,-44.0,-167.0,198.0,-176.0,24.0,3
1578,61.0,-43.0,6.0,61.0,-2.0,-109.0,245.0,-157.0,8.0,3
1579,65.0,-36.0,7.0,195.0,31.0,-67.0,268.0,-126.0,6.0,3
1580,70.0,-29.0,6.0,302.0,52.0,-17.0,285.0,-99.0,16.0,3
1581,74.0,-25.0,2.0,372.0,70.0,34.0,300.0,-94.0,4.0,3
1582,78.0,-28.0,-2.0,386.0,96.0,90.0,311.0,-116.0,-9.0,3
1583,82.0,-26.0,1.0,346.0,153.0,138.0,309.0,-112.0,-10.0,3
1584,73.0,-36.0,1.0,292.0,242.0,187.0,295.0,-138.0,-24.0,3
1585,61.0,-49.0,9.0,239.0,339.0,241.0,249.0,-181.0,-16.0,3
1586,52.0,-58.0,2.0,210.0,424.0,290.0,211.0,-212.0,9.0,3
1587,35.0,-62.0,20.0,251.0,479.0,322.0,145.0,-214.0,55.0,3
1588,22.0,-61.0,35.0,377.0,515.0,354.0,97.0,-214.0,101.0,3
1589,8.0,-54.0,37.0,571.0,538.0,389.0,55.0,-186.0,128.0,3
1590,4.0,-46.0,40.0,790.0,546.0,427.0,31.0,-158.0,140.0,3
1591,7.0,-39.0,34.0,991.0,546.0,464.0,26.0,-141.0,125.0,3
1592,13.0,-32.0,22.0,1140.0,548.0,498.0,46.0,-118.0,91.0,3
1593,24.0,-30.0,6.0,1224.0,563.0,526.0,83.0,-116.0,17.0,3
1594,42.0,-40.0,-23.0,1234.0,594.0,550.0,143.0,-148.0,-79.0,3
1595,75.0,-59.0,-67.0,1168.0,642.0,567.0,261.0,-254.0,-294.0,3
1596,117.0,-89.0,-125.0,999.0,718.0,560.0,449.0,-402.0,-535.0,3
1597,167.0,-137.0,-191.0,685.0,849.0,480.0,637.0,-564.0,-791.0,3
1598,200.0,-170.0,-249.0,242.0,1044.0,311.0,772.0,-722.0,-1038.0,3
1599,201.0,-227.0,-297.0,-241.0,1295.0,104.0,774.0,-909.0,-1226.0,3
1600,170.0,-302.0,-288.0,-645.0,1555.0,-39.0,671.0,-1178.0,-1225.0,3
1601,129.0,-406.0,-195.0,-848.0,1733.0,-89.0,557.0,-1549.0,-861.0,3
1602,79.0,-521.0,-36.0,-795.0,1712.0,-151.0,418.0,-1987.0,-237.0,3
1603,16.0,-600.0,119.0,-642.0,1421.0,-326.0,202.0,-2308.0,382.0,3
1604,-28.0,-630.0,213.0,-432.0,947.0,-555.0,16.0,-2459.0,791.0,3
1605,5.0,-639.0,239.0,-268.0,581.0,-711.0,62.0,-2514.0,926.0,3
1606,68.0,-631.0,217.0,-181.0,546.0,-793.0,275.0,-2480.0,866.0,3
1607,64.0,-594.0,186.0,-212.0,797.0,-861.0,225.0,-2323.0,687.0,3
1608,-22.0,-527.0,116.0,-276.0,1174.0,-913.0,-19.0,-2080.0,471.0,3
1609,-118.0,-482.0,69.0,-216.0,1399.0,-909.0,-335.0,-1877.0,262.0,3
1610,-182.0,-459.0,23.0,39.0,1283.0,-809.0,-564.0,-1762.0,97.0,3
1611,-220.0,-446.0,-16.0,429.0,880.0,-624.0,-764.0,-1726.0,-68.0,3
1612,-224.0,-405.0,-25.0,790.0,491.0,-415.0,-847.0,-1612.0,-154.0,3
1613,-202.0,-357.0,-5.0,1003.0,313.0,-222.0,-783.0,-1471.0,-80.0,3
1614,-195.0,-322.0,18.0,1030.0,305.0,-72.0,-747.0,-1332.0,20.0,3
1615,-177.0,-291.0,40.0,872.0,348.0,70.0,-680.0,-1231.0,116.0,3
1616,-159.0,-277.0,56.0,563.0,328.0,207.0,-600.0,-1176.0,194.0,3
1617,-134.0,-275.0,54.0,174.0,245.0,344.0,-493.0,-1156.0,184.0,3
1618,-91.0,-288.0,39.0,-232.0,172.0,497.0,-334.0,-1198.0,138.0,3
1619,-47.0,-315.0,36.0,-609.0,149.0,648.0,-153.0,-1287.0,116.0,3
1620,-18.0,-347.0,45.0,-921.0,151.0,776.0,-25.0,-1401.0,144.0,3
1621,-11.0,-379.0,59.0,-1152.0,135.0,863.0,2.0,-1514.0,195.0,3
1622,-6.0,-413.0,76.0,-1285.0,76.0,932.0,29.0,-1614.0,267.0,3
1623,3.0,-444.0,93.0,-1314.0,-30.0,987.0,77.0,-1722.0,333.0,3
1624,26.0,-469.0,103.0,-1242.0,-137.0,1017.0,140.0,-1815.0,381.0,3
1625,34.0,-486.0,108.0,-1099.0,-219.0,1013.0,190.0,-1871.0,400.0,3
1626,40.0,-491.0,108.0,-920.0,-265.0,992.0,198.0,-1901.0,393.0,3
1627,46.0,-490.0,105.0,-738.0,-289.0,967.0,219.0,-1901.0,382.0,3
1628,48.0,-470.0,106.0,-576.0,-309.0,945.0,242.0,-1833.0,393.0,3
1629,51.0,-455.0,110.0,-424.0,-332.0,937.0,233.0,-1771.0,405.0,3
1630,48.0,-440.0,103.0,-302.0,-327.0,940.0,235.0,-1706.0,382.0,3
1631,32.0,-403.0,99.0,-236.0,-301.0,915.0,151.0,-1579.0,367.0,3
1632,0.0,-363.0,96.0,-198.0,-265.0,895.0,45.0,-1442.0,356.0,3
1633,-27.0,-339.0,110.0,-160.0,-220.0,892.0,-60.0,-1334.0,388.0,3
1634,-58.0,-323.0,112.0,-103.0,-186.0,884.0,-180.0,-1285.0,406.0,3
1635,-76.0,-315.0,106.0,-74.0,-180.0,882.0,-259.0,-1266.0,396.0,3
1636,-93.0,-312.0,98.0,-124.0,-218.0,868.0,-319.0,-1252.0,371.0,3
1637,-99.0,-311.0,95.0,-230.0,-270.0,844.0,-348.0,-1256.0,353.0,3
1638,-99.0,-316.0,89.0,-334.0,-306.0,833.0,-358.0,-1247.0,330.0,3
1639,-95.0,-314.0,90.0,-390.0,-325.0,840.0,-341.0,-1228.0,326.0,3
1640,-90.0,-292.0,84.0,-343.0,-342.0,831.0,-318.0,-1155.0,317.0,3
1641,-68.0,-273.0,78.0,-192.0,-352.0,850.0,-245.0,-1070.0,286.0,3
1642,-44.0,-240.0,66.0,-15.0,-365.0,883.0,-163.0,-937.0,241.0,3
1643,-24.0,-194.0,53.0,135.0,-380.0,905.0,-80.0,-771.0,192.0,3
1644,0.0,-141.0,40.0,230.0,-393.0,907.0,18.0,-580.0,145.0,3
1645,14.0,-91.0,24.0,265.0,-393.0,884.0,60.0,-369.0,94.0,3
1646,33.0,-45.0,18.0,248.0,-379.0,840.0,131.0,-186.0,69.0,3
1647,33.0,0.0,8.0,194.0,-357.0,756.0,130.0,-30.0,27.0,3
1648,27.0,25.0,-1.0,122.0,-333.0,669.0,119.0,76.0,-14.0,3
1649,21.0,36.0,-9.0,33.0,-309.0,597.0,86.0,121.0,-60.0,3
1650,16.0,36.0,-8.0,-84.0,-299.0,510.0,69.0,116.0,-58.0,3
1651,10.0,29.0,0.0,-204.0,-302.0,392.0,33.0,91.0,-22.0,3
1652,-1.0,12.0,7.0,-294.0,-313.0,268.0,-20.0,52.0,1.0,3
1653,-21.0,0.0,12.0,-338.0,-321.0,143.0,-87.0,-4.0,32.0,3
1654,-40.0,-18.0,16.0,-337.0,-336.0,37.0,-152.0,-82.0,51.0,3
1655,-50.0,-41.0,22.0,-289.0,-360.0,-30.0,-193.0,-161.0,63.0,3
1656,-60.0,-63.0,18.0,-190.0,-394.0,-63.0,-232.0,-248.0,54.0,3
1657,-65.0,-90.0,14.0,-63.0,-422.0,-86.0,-255.0,-326.0,33.0,3
1658,-68.0,-104.0,15.0,93.0,-430.0,-107.0,-262.0,-375.0,21.0,3
1659,-60.0,-113.0,11.0,253.0,-420.0,-137.0,-233.0,-419.0,12.0,3
1660,-55.0,-114.0,15.0,405.0,-409.0,-170.0,-222.0,-430.0,27.0,3
1661,-39.0,-114.0,24.0,560.0,-387.0,-204.0,-154.0,-417.0,66.0,3
1662,-18.0,-101.0,27.0,716.0,-365.0,-251.0,-74.0,-379.0,86.0,3
1663,2.0,-84.0,26.0,862.0,-343.0,-302.0,14.0,-335.0,78.0,3
1664,32.0,-73.0,22.0,975.0,-328.0,-355.0,115.0,-288.0,71.0,3
1665,36.0,-54.0,21.0,1047.0,-312.0,-405.0,148.0,-220.0,63.0,3
1666,34.0,-47.0,17.0,1094.0,-301.0,-438.0,154.0,-191.0,55.0,3
1667,27.0,-48.0,12.0,1131.0,-316.0,-453.0,133.0,-179.0,35.0,3
1668,13.0,-50.0,0.0,1166.0,-378.0,-442.0,92.0,-203.0,-3.0,3
1669,-10.0,-66.0,-22.0,1174.0,-483.0,-413.0,20.0,-255.0,-94.0,3
1670,-55.0,-76.0,-78.0,1107.0,-627.0,-349.0,-143.0,-347.0,-287.0,3
1671,-114.0,-97.0,-160.0,868.0,-774.0,-237.0,-386.0,-455.0,-692.0,3
1672,-171.0,-120.0,-267.0,508.0,-824.0,-72.0,-686.0,-590.0,-1124.0,3
1673,-179.0,-174.0,-366.0,-124.0,-747.0,146.0,-680.0,-801.0,-1520.0,3
1674,-127.0,-279.0,-387.0,-764.0,-695.0,398.0,-434.0,-1159.0,-1634.0,3
1675,-57.0,-408.0,-340.0,-1191.0,-740.0,647.0,-193.0,-1607.0,-1450.0,3
1676,-11.0,-536.0,-261.0,-1350.0,-698.0,953.0,-53.0,-2127.0,-1104.0,3
1677,51.0,-649.0,-147.0,-1448.0,-359.0,1402.0,178.0,-2599.0,-651.0,3
1678,107.0,-736.0,21.0,-1659.0,198.0,1748.0,436.0,-2899.0,15.0,3
1679,70.0,-773.0,199.0,-1850.0,612.0,1781.0,379.0,-3013.0,730.0,3
1680,-31.0,-749.0,318.0,-1788.0,618.0,1607.0,52.0,-2869.0,1216.0,3
1681,-85.0,-691.0,330.0,-1332.0,202.0,1408.0,-169.0,-2605.0,1278.0,3
1682,-64.0,-634.0,244.0,-516.0,-439.0,1246.0,-143.0,-2345.0,839.0,3
1683,36.0,-569.0,76.0,428.0,-998.0,1122.0,160.0,-2143.0,305.0,3
1684,156.0,-531.0,-26.0,1215.0,-1238.0,1032.0,573.0,-2042.0,-94.0,3
1685,239.0,-495.0,-72.0,1702.0,-1106.0,904.0,880.0,-1942.0,-292.0,3
1686,223.0,-427.0,-50.0,1844.0,-649.0,609.0,850.0,-1730.0,-256.0,3
1687,163.0,-355.0,23.0,1642.0,-89.0,236.0,662.0,-1476.0,14.0,3
1688,107.0,-301.0,96.0,1296.0,310.0,-93.0,461.0,-1246.0,305.0,3
1689,61.0,-265.0,130.0,983.0,466.0,-343.0,308.0,-1096.0,486.0,3
1690,35.0,-244.0,128.0,712.0,421.0,-536.0,198.0,-1016.0,495.0,3
1691,18.0,-245.0,91.0,415.0,270.0,-699.0,125.0,-1018.0,377.0,3
1692,16.0,-266.0,42.0,60.0,116.0,-845.0,100.0,-1085.0,196.0,3
1693,9.0,-291.0,-3.0,-316.0,49.0,-979.0,52.0,-1163.0,-39.0,3
1694,2.0,-313.0,-32.0,-657.0,104.0,-1083.0,2.0,-1253.0,-140.0,3
1695,-15.0,-330.0,-22.0,-915.0,230.0,-1151.0,-64.0,-1304.0,-126.0,3
1696,-35.0,-348.0,0.0,-1054.0,362.0,-1184.0,-107.0,-1354.0,-14.0,3
1697,-40.0,-358.0,47.0,-1060.0,464.0,-1199.0,-141.0,-1390.0,151.0,3
1698,-49.0,-361.0,88.0,-959.0,528.0,-1215.0,-159.0,-1407.0,305.0,3
1699,-64.0,-369.0,108.0,-809.0,564.0,-1231.0,-227.0,-1458.0,402.0,3
1700,-76.0,-383.0,127.0,-732.0,592.0,-1211.0,-256.0,-1535.0,480.0,3
1701,-84.0,-406.0,139.0,-751.0,598.0,-1161.0,-283.0,-1613.0,530.0,3
1702,-82.0,-433.0,132.0,-815.0,554.0,-1102.0,-267.0,-1715.0,516.0,3
1703,-71.0,-456.0,125.0,-889.0,452.0,-1047.0,-233.0,-1814.0,486.0,3
1704,-39.0,-480.0,129.0,-935.0,342.0,-1004.0,-134.0,-1880.0,468.0,3
1705,-12.0,-489.0,135.0,-879.0,299.0,-1007.0,6.0,-1877.0,499.0,3
1706,15.0,-479.0,136.0,-670.0,311.0,-1044.0,124.0,-1817.0,510.0,3
1707,61.0,-454.0,128.0,-360.0,336.0,-1088.0,256.0,-1748.0,495.0,3
1708,78.0,-424.0,112.0,-46.0,370.0,-1136.0,327.0,-1630.0,411.0,3
1709,99.0,-392.0,101.0,180.0,423.0,-1176.0,404.0,-1535.0,388.0,3
1710,103.0,-360.0,91.0,308.0,489.0,-1202.0,439.0,-1446.0,336.0,3
1711,103.0,-334.0,79.0,325.0,539.0,-1219.0,441.0,-1332.0,291.0,3
1712,92.0,-307.0,79.0,260.0,553.0,-1259.0,401.0,-1230.0,290.0,3
1713,70.0,-280.0,81.0,196.0,551.0,-1323.0,333.0,-1123.0,294.0,3
1714,59.0,-254.0,84.0,169.0,540.0,-1399.0,287.0,-1014.0,303.0,3
1715,45.0,-222.0,84.0,156.0,491.0,-1468.0,214.0,-899.0,307.0,3
1716,35.0,-200.0,75.0,175.0,433.0,-1503.0,170.0,-784.0,293.0,3
1717,14.0,-170.0,65.0,207.0,377.0,-1537.0,84.0,-670.0,242.0,3
1718,-14.0,-134.0,49.0,217.0,319.0,-1548.0,-44.0,-542.0,175.0,3
1719,-36.0,-95.0,35.0,177.0,285.0,-1481.0,-145.0,-393.0,127.0,3
1720,-54.0,-82.0,26.0,165.0,305.0,-1343.0,-219.0,-320.0,98.0,3
1721,-64.0,-70.0,21.0,201.0,381.0,-1187.0,-269.0,-282.0,73.0,3
1722,-76.0,-64.0,14.0,253.0,473.0,-1034.0,-289.0,-256.0,47.0,3
1723,-73.0,-59.0,9.0,291.0,527.0,-886.0,-282.0,-229.0,31.0,3
1724,-69.0,-49.0,8.0,312.0,515.0,-744.0,-245.0,-201.0,11.0,3
1725,-45.0,-39.0,11.0,333.0,441.0,-601.0,-172.0,-157.0,-4.0,3
1726,-24.0,-31.0,-1.0,369.0,346.0,-466.0,-87.0,-120.0,-54.0,3
1727,-5.0,-18.0,-11.0,428.0,277.0,-355.0,-3.0,-74.0,-84.0,3
1728,4.0,-14.0,-17.0,489.0,250.0,-264.0,31.0,-50.0,-103.0,3
1729,16.0,-12.0,-16.0,542.0,253.0,-178.0,79.0,-55.0,-86.0,3
1730,31.0,-19.0,-8.0,589.0,263.0,-90.0,137.0,-69.0,-53.0,3
1731,41.0,-31.0,0.0,641.0,274.0,-5.0,168.0,-111.0,-31.0,3
1732,49.0,-44.0,11.0,688.0,296.0,59.0,176.0,-155.0,4.0,3
1733,43.0,-59.0,14.0,749.0,315.0,115.0,182.0,-207.0,33.0,3
1734,46.0,-69.0,20.0,837.0,318.0,164.0,193.0,-250.0,60.0,3
1735,37.0,-71.0,18.0,961.0,308.0,203.0,172.0,-276.0,68.0,3
1736,30.0,-73.0,22.0,1119.0,295.0,238.0,144.0,-266.0,81.0,3
1737,17.0,-63.0,17.0,1298.0,295.0,280.0,96.0,-237.0,50.0,3
1738,8.0,-49.0,7.0,1467.0,305.0,326.0,38.0,-196.0,15.0,3
1739,2.0,-40.0,-9.0,1599.0,325.0,375.0,25.0,-165.0,-49.0,3
1740,7.0,-41.0,-34.0,1670.0,357.0,428.0,40.0,-167.0,-161.0,3
1741,30.0,-48.0,-79.0,1653.0,409.0,481.0,99.0,-228.0,-334.0,3
1742,76.0,-73.0,-129.0,1482.0,499.0,509.0,268.0,-324.0,-526.0,3
1743,127.0,-104.0,-187.0,1150.0,645.0,479.0,457.0,-440.0,-745.0,3
1744,171.0,-145.0,-232.0,711.0,810.0,401.0,637.0,-590.0,-944.0,3
1745,192.0,-197.0,-245.0,276.0,1076.0,297.0,725.0,-772.0,-1034.0,3
1746,183.0,-266.0,-189.0,-95.0,1361.0,181.0,733.0,-1006.0,-861.0,3
1747,140.0,-343.0,-56.0,-321.0,1563.0,101.0,618.0,-1296.0,-387.0,3
1748,100.0,-407.0,79.0,-392.0,1573.0,8.0,494.0,-1560.0,321.0,3
1749,66.0,-446.0,166.0,-422.0,1326.0,-136.0,366.0,-1797.0,644.0,3
1750,63.0,-470.0,176.0,-551.0,950.0,-334.0,324.0,-1897.0,694.0,3
1751,85.0,-489.0,152.0,-830.0,684.0,-531.0,362.0,-1998.0,587.0,3
1752,119.0,-529.0,117.0,-1202.0,647.0,-649.0,499.0,-2131.0,439.0,3
1753,143.0,-588.0,80.0,-1511.0,740.0,-698.0,611.0,-2308.0,286.0,3
1754,117.0,-636.0,43.0,-1587.0,805.0,-783.0,498.0,-2429.0,131.0,3
1755,40.0,-643.0,20.0,-1322.0,829.0,-908.0,185.0,-2419.0,39.0,3
1756,-56.0,-616.0,36.0,-731.0,881.0,-998.0,-177.0,-2309.0,88.0,3
1757,-156.0,-538.0,78.0,22.0,927.0,-1010.0,-481.0,-2129.0,230.0,3
1758,-232.0,-456.0,106.0,742.0,902.0,-938.0,-773.0,-1865.0,365.0,3
1759,-268.0,-368.0,129.0,1231.0,784.0,-787.0,-962.0,-1557.0,483.0,3
1760,-262.0,-296.0,125.0,1399.0,559.0,-567.0,-971.0,-1245.0,484.0,3
1761,-231.0,-256.0,89.0,1283.0,306.0,-316.0,-892.0,-1106.0,371.0,3
1762,-181.0,-244.0,45.0,926.0,128.0,-52.0,-700.0,-1068.0,189.0,3
1763,-131.0,-254.0,10.0,413.0,69.0,178.0,-529.0,-1081.0,30.0,3
1764,-104.0,-273.0,-10.0,-114.0,130.0,375.0,-403.0,-1135.0,-51.0,3
1765,-82.0,-297.0,5.0,-547.0,241.0,576.0,-305.0,-1205.0,-23.0,3
1766,-66.0,-317.0,37.0,-847.0,304.0,768.0,-220.0,-1271.0,101.0,3
1767,-51.0,-339.0,67.0,-1019.0,275.0,940.0,-159.0,-1332.0,238.0,3
1768,-41.0,-358.0,102.0,-1103.0,169.0,1084.0,-106.0,-1413.0,348.0,3
1769,-22.0,-377.0,114.0,-1149.0,30.0,1180.0,-42.0,-1474.0,414.0,3
1770,-1.0,-399.0,118.0,-1173.0,-117.0,1217.0,28.0,-1576.0,444.0,3
1771,3.0,-421.0,114.0,-1172.0,-241.0,1191.0,70.0,-1647.0,446.0,3
1772,8.0,-440.0,111.0,-1135.0,-330.0,1127.0,76.0,-1709.0,425.0,3
1773,3.0,-448.0,111.0,-1047.0,-383.0,1061.0,66.0,-1738.0,402.0,3
1774,-1.0,-445.0,101.0,-915.0,-417.0,998.0,30.0,-1726.0,380.0,3
1775,-4.0,-436.0,99.0,-753.0,-439.0,957.0,27.0,-1693.0,372.0,3
1776,-10.0,-423.0,95.0,-575.0,-449.0,953.0,-2.0,-1644.0,337.0,3
1777,-11.0,-399.0,90.0,-444.0,-448.0,979.0,-7.0,-1570.0,329.0,3
1778,-22.0,-372.0,87.0,-371.0,-441.0,991.0,-51.0,-1462.0,322.0,3
1779,-29.0,-353.0,94.0,-314.0,-431.0,1008.0,-83.0,-1383.0,349.0,3
1780,-46.0,-332.0,106.0,-246.0,-432.0,1025.0,-144.0,-1298.0,391.0,3
1781,-63.0,-322.0,109.0,-198.0,-444.0,1043.0,-202.0,-1279.0,405.0,3
1782,-77.0,-324.0,110.0,-235.0,-472.0,1046.0,-261.0,-1306.0,402.0,3
1783,-85.0,-331.0,106.0,-364.0,-509.0,1033.0,-302.0,-1333.0,393.0,3
1784,-85.0,-342.0,103.0,-531.0,-537.0,1006.0,-312.0,-1369.0,383.0,3
1785,-88.0,-351.0,99.0,-664.0,-552.0,987.0,-319.0,-1397.0,375.0,3
1786,-77.0,-357.0,106.0,-694.0,-551.0,975.0,-274.0,-1394.0,377.0,3
1787,-59.0,-355.0,112.0,-605.0,-547.0,983.0,-205.0,-1377.0,392.0,3
1788,-41.0,-337.0,105.0,-401.0,-539.0,991.0,-134.0,-1316.0,389.0,3
1789,-18.0,-308.0,91.0,-149.0,-541.0,989.0,-51.0,-1207.0,341.0,3
1790,7.0,-261.0,75.0,77.0,-549.0,972.0,39.0,-1039.0,284.0,3
1791,23.0,-202.0,62.0,260.0,-555.0,930.0,107.0,-818.0,223.0,3
1792,37.0,-138.0,41.0,391.0,-544.0,876.0,144.0,-530.0,128.0,3
1793,45.0,-78.0,25.0,451.0,-512.0,823.0,175.0,-308.0,81.0,3
1794,49.0,-33.0,15.0,447.0,-457.0,761.0,195.0,-143.0,50.0,3
1795,51.0,0.0,13.0,379.0,-393.0,666.0,186.0,-10.0,31.0,3
1796,43.0,19.0,8.0,266.0,-331.0,527.0,151.0,60.0,26.0,3
1797,30.0,26.0,16.0,163.0,-275.0,381.0,119.0,93.0,45.0,3
1798,20.0,23.0,21.0,94.0,-235.0,252.0,85.0,68.0,73.0,3
1799,0.0,0.0,19.0,65.0,-216.0,135.0,10.0,-4.0,82.0,3
1800,-25.0,-18.0,28.0,50.0,-209.0,14.0,-89.0,-83.0,89.0,3
1801,-58.0,-29.0,36.0,52.0,-229.0,-113.0,-197.0,-118.0,109.0,3
1802,-76.0,-41.0,23.0,111.0,-289.0,-204.0,-280.0,-162.0,93.0,3
1803,-83.0,-54.0,12.0,197.0,-362.0,-260.0,-323.0,-213.0,14.0,3
1804,-90.0,-60.0,-8.0,287.0,-427.0,-295.0,-330.0,-240.0,-53.0,3
1805,-78.0,-65.0,-21.0,368.0,-457.0,-305.0,-284.0,-273.0,-127.0,3
1806,-62.0,-72.0,-33.0,428.0,-450.0,-309.0,-234.0,-290.0,-139.0,3
1807,-45.0,-71.0,-15.0,478.0,-414.0,-311.0,-176.0,-282.0,-94.0,3
1808,-30.0,-67.0,-1.0,542.0,-371.0,-335.0,-121.0,-274.0,-51.0,3
1809,-8.0,-71.0,8.0,612.0,-339.0,-365.0,-48.0,-262.0,-19.0,3
1810,12.0,-64.0,10.0,661.0,-328.0,-393.0,39.0,-251.0,5.0,3
1811,27.0,-63.0,20.0,713.0,-326.0,-422.0,97.0,-241.0,46.0,3
1812,24.0,-65.0,26.0,794.0,-332.0,-447.0,116.0,-244.0,89.0,3
1813,11.0,-68.0,31.0,908.0,-348.0,-459.0,86.0,-252.0,102.0,3
1814,-11.0,-75.0,18.0,1029.0,-399.0,-447.0,2.0,-293.0,53.0,3
1815,-61.0,-82.0,-22.0,1106.0,-499.0,-399.0,-190.0,-355.0,-103.0,3
1816,-111.0,-93.0,-91.0,1064.0,-651.0,-325.0,-394.0,-429.0,-373.0,3
1817,-145.0,-113.0,-196.0,838.0,-789.0,-181.0,-572.0,-514.0,-796.0,3
1818,-141.0,-149.0,-300.0,405.0,-806.0,-1.0,-572.0,-664.0,-1232.0,3
1819,-122.0,-232.0,-346.0,-118.0,-721.0,194.0,-469.0,-938.0,-1446.0,3
1820,-72.0,-335.0,-318.0,-552.0,-663.0,438.0,-281.0,-1315.0,-1351.0,3
1821,-15.0,-441.0,-222.0,-849.0,-568.0,747.0,-81.0,-1727.0,-980.0,3
1822,26.0,-540.0,-133.0,-1084.0,-295.0,1136.0,70.0,-2133.0,-612.0,3
1823,82.0,-629.0,-26.0,-1467.0,126.0,1565.0,320.0,-2507.0,-189.0,3
1824,103.0,-701.0,98.0,-1937.0,467.0,1823.0,465.0,-2751.0,288.0,3
1825,69.0,-736.0,214.0,-2231.0,527.0,1847.0,404.0,-2847.0,852.0,3
1826,24.0,-748.0,251.0,-2075.0,261.0,1754.0,226.0,-2795.0,950.0,3
1827,0.0,-722.0,197.0,-1398.0,-199.0,1625.0,139.0,-2640.0,722.0,3
1828,38.0,-691.0,108.0,-323.0,-647.0,1495.0,255.0,-2510.0,374.0,3
1829,98.0,-631.0,29.0,840.0,-918.0,1336.0,433.0,-2351.0,66.0,3
1830,165.0,-553.0,-5.0,1694.0,-912.0,1122.0,669.0,-2107.0,-52.0,3
1831,210.0,-468.0,20.0,2075.0,-698.0,818.0,810.0,-1825.0,53.0,3
1832,166.0,-341.0,54.0,2055.0,-409.0,421.0,690.0,-1469.0,175.0,3
1833,111.0,-242.0,100.0,1764.0,-98.0,26.0,468.0,-1093.0,335.0,3
1834,59.0,-178.0,126.0,1370.0,164.0,-258.0,292.0,-807.0,478.0,3
1835,18.0,-144.0,126.0,970.0,278.0,-438.0,146.0,-655.0,507.0,3
1836,-13.0,-145.0,104.0,575.0,215.0,-573.0,24.0,-639.0,412.0,3
1837,-40.0,-172.0,64.0,176.0,46.0,-683.0,-109.0,-739.0,248.0,3
1838,-44.0,-212.0,17.0,-234.0,-118.0,-794.0,-145.0,-888.0,51.0,3
1839,-46.0,-253.0,-22.0,-618.0,-192.0,-913.0,-171.0,-1019.0,-93.0,3
1840,-53.0,-288.0,-33.0,-922.0,-165.0,-1028.0,-204.0,-1144.0,-146.0,3
1841,-67.0,-319.0,-22.0,-1088.0,-62.0,-1116.0,-249.0,-1245.0,-124.0,3
1842,-81.0,-339.0,10.0,-1119.0,69.0,-1183.0,-296.0,-1311.0,-8.0,3
1843,-83.0,-350.0,46.0,-1035.0,158.0,-1246.0,-288.0,-1361.0,128.0,3
1844,-79.0,-350.0,75.0,-906.0,180.0,-1290.0,-273.0,-1379.0,254.0,3
1845,-80.0,-352.0,98.0,-787.0,164.0,-1297.0,-274.0,-1392.0,338.0,3
1846,-90.0,-361.0,101.0,-724.0,145.0,-1252.0,-329.0,-1441.0,378.0,3
1847,-95.0,-379.0,106.0,-752.0,127.0,-1152.0,-330.0,-1530.0,397.0,3
1848,-100.0,-394.0,106.0,-855.0,66.0,-1051.0,-324.0,-1582.0,397.0,3
1849,-82.0,-411.0,112.0,-975.0,-51.0,-971.0,-270.0,-1633.0,410.0,3
1850,-57.0,-428.0,116.0,-1035.0,-177.0,-914.0,-170.0,-1677.0,431.0,3
1851,-25.0,-430.0,116.0,-990.0,-255.0,-900.0,-53.0,-1669.0,445.0,3
1852,6.0,-430.0,117.0,-837.0,-255.0,-914.0,63.0,-1651.0,443.0,3
1853,37.0,-418.0,125.0,-623.0,-207.0,-939.0,183.0,-1616.0,453.0,3
1854,50.0,-406.0,119.0,-410.0,-158.0,-962.0,261.0,-1550.0,426.0,3
1855,76.0,-385.0,114.0,-242.0,-131.0,-985.0,338.0,-1505.0,415.0,3
1856,97.0,-381.0,106.0,-126.0,-101.0,-991.0,402.0,-1476.0,395.0,3
1857,111.0,-362.0,105.0,-87.0,-48.0,-1008.0,446.0,-1438.0,387.0,3
1858,112.0,-344.0,116.0,-119.0,18.0,-1049.0,461.0,-1366.0,423.0,3
1859,97.0,-325.0,127.0,-181.0,76.0,-1108.0,411.0,-1295.0,465.0,3
1860,83.0,-312.0,140.0,-226.0,105.0,-1165.0,361.0,-1218.0,515.0,3
1861,65.0,-299.0,142.0,-211.0,111.0,-1212.0,299.0,-1156.0,554.0,3
1862,60.0,-281.0,144.0,-128.0,94.0,-1250.0,263.0,-1097.0,560.0,3
1863,45.0,-260.0,137.0,6.0,66.0,-1285.0,213.0,-1008.0,513.0,3
1864,26.0,-226.0,111.0,154.0,30.0,-1312.0,132.0,-907.0,431.0,3
1865,2.0,-194.0,81.0,273.0,0.0,-1310.0,53.0,-778.0,325.0,3
1866,-20.0,-156.0,52.0,348.0,-15.0,-1273.0,-41.0,-652.0,207.0,3
1867,-30.0,-120.0,33.0,372.0,1.0,-1206.0,-116.0,-505.0,112.0,3
1868,-35.0,-93.0,12.0,348.0,40.0,-1096.0,-139.0,-393.0,39.0,3
1869,-38.0,-67.0,0.0,305.0,96.0,-966.0,-147.0,-281.0,-29.0,3
1870,-31.0,-49.0,-3.0,261.0,146.0,-836.0,-107.0,-212.0,-39.0,3
1871,-17.0,-39.0,-3.0,224.0,168.0,-715.0,-66.0,-157.0,-31.0,3
1872,-1.0,-31.0,2.0,211.0,186.0,-598.0,-8.0,-127.0,-17.0,3
1873,9.0,-28.0,5.0,224.0,208.0,-492.0,43.0,-119.0,-6.0,3
1874,23.0,-31.0,13.0,260.0,237.0,-379.0,98.0,-121.0,24.0,3
1875,31.0,-45.0,20.0,330.0,251.0,-262.0,142.0,-152.0,51.0,3
1876,41.0,-47.0,27.0,414.0,252.0,-175.0,176.0,-183.0,60.0,3
1877,43.0,-56.0,19.0,495.0,231.0,-102.0,194.0,-209.0,62.0,3
1878,46.0,-61.0,20.0,549.0,197.0,-42.0,205.0,-235.0,66.0,3
1879,46.0,-63.0,20.0,606.0,159.0,7.0,195.0,-244.0,45.0,3
1880,48.0,-59.0,18.0,662.0,121.0,52.0,211.0,-238.0,42.0,3
1881,48.0,-54.0,13.0,723.0,103.0,87.0,201.0,-207.0,37.0,3
1882,37.0,-41.0,17.0,795.0,106.0,125.0,158.0,-158.0,33.0,3
1883,23.0,-28.0,16.0,871.0,131.0,168.0,111.0,-123.0,36.0,3
1884,7.0,-20.0,18.0,939.0,167.0,231.0,37.0,-82.0,51.0,3
1885,-10.0,-13.0,21.0,1001.0,207.0,295.0,-30.0,-53.0,70.0,3
1886,-16.0,-9.0,26.0,1055.0,238.0,355.0,-71.0,-44.0,88.0,3
1887,-16.0,-13.0,23.0,1097.0,258.0,403.0,-72.0,-57.0,71.0,3
1888,-10.0,-22.0,6.0,1102.0,284.0,436.0,-57.0,-82.0,25.0,3
1889,3.0,-35.0,-19.0,1052.0,335.0,472.0,-14.0,-146.0,-60.0,3
