,acc1_x,acc1_y,acc1_z,gyro_x,gyro_y,gyro_z,acc2_x,acc2_y,acc2_z,label
0,-8.0,-257.0,-19.0,3.0,68.0,-12.0,-58.0,-1011.0,24.0,3
1,-11.0,-259.0,-22.0,7.0,70.0,-13.0,-60.0,-1009.0,21.0,3
2,-10.0,-258.0,-21.0,9.0,71.0,-16.0,-57.0,-1006.0,22.0,3
3,-11.0,-257.0,-18.0,11.0,73.0,-17.0,-62.0,-1006.0,28.0,3
4,-11.0,-257.0,-21.0,11.0,73.0,-20.0,-59.0,-1008.0,21.0,3
5,-11.0,-253.0,-17.0,11.0,75.0,-20.0,-60.0,-1004.0,18.0,3
6,-9.0,-257.0,-19.0,9.0,73.0,-23.0,-60.0,-995.0,19.0,3
7,-9.0,-256.0,-19.0,8.0,73.0,-22.0,-66.0,-985.0,14.0,3
8,-12.0,-252.0,-20.0,7.0,75.0,-26.0,-67.0,-979.0,13.0,3
9,-12.0,-251.0,-16.0,6.0,75.0,-24.0,-61.0,-974.0,16.0,3
10,-11.0,-255.0,-20.0,1.0,75.0,-26.0,-66.0,-976.0,13.0,3
11,-12.0,-252.0,-21.0,-2.0,74.0,-23.0,-67.0,-973.0,15.0,3
12,-12.0,-252.0,-20.0,-4.0,74.0,-24.0,-69.0,-971.0,15.0,3
13,-11.0,-251.0,-22.0,-7.0,74.0,-20.0,-67.0,-968.0,17.0,3
14,-14.0,-249.0,-19.0,-9.0,73.0,-22.0,-69.0,-969.0,12.0,3
15,-11.0,-252.0,-18.0,-10.0,72.0,-16.0,-72.0,-964.0,15.0,3
16,-12.0,-251.0,-19.0,-12.0,70.0,-17.0,-70.0,-967.0,15.0,3
17,-12.0,-251.0,-22.0,-14.0,70.0,-13.0,-69.0,-965.0,15.0,3
18,-12.0,-246.0,-21.0,-16.0,69.0,-15.0,-68.0,-969.0,16.0,3
19,-12.0,-248.0,-19.0,-17.0,69.0,-11.0,-68.0,-963.0,16.0,3
20,-11.0,-249.0,-17.0,-18.0,68.0,-12.0,-67.0,-968.0,18.0,3
21,-12.0,-256.0,-19.0,-21.0,69.0,-9.0,-69.0,-968.0,23.0,3
22,-8.0,-254.0,-21.0,-21.0,71.0,-11.0,-68.0,-971.0,23.0,3
23,-9.0,-240.0,-28.0,-21.0,72.0,-9.0,-66.0,-976.0,16.0,3
24,-10.0,-258.0,-19.0,-19.0,74.0,-11.0,-69.0,-982.0,22.0,3
25,-10.0,-256.0,-23.0,-18.0,75.0,-8.0,-62.0,-982.0,22.0,3
26,-12.0,-255.0,-18.0,-15.0,76.0,-11.0,-66.0,-985.0,17.0,3
27,-10.0,-246.0,-15.0,-13.0,75.0,-10.0,-67.0,-981.0,15.0,3
28,-10.0,-255.0,-27.0,-13.0,73.0,-12.0,-63.0,-978.0,16.0,3
29,-5.0,-248.0,-19.0,-14.0,71.0,-10.0,-67.0,-978.0,11.0,3
30,-3.0,-253.0,-14.0,-16.0,68.0,-13.0,-68.0,-985.0,9.0,3
31,-8.0,-249.0,-20.0,-18.0,67.0,-10.0,-68.0,-989.0,9.0,3
32,-10.0,-257.0,-13.0,-23.0,66.0,-11.0,-68.0,-980.0,7.0,3
33,-11.0,-258.0,-25.0,-26.0,64.0,-11.0,-68.0,-984.0,10.0,3
34,-9.0,-253.0,-20.0,-32.0,63.0,-12.0,-71.0,-979.0,8.0,3
35,-11.0,-256.0,-22.0,-35.0,62.0,-10.0,-69.0,-979.0,8.0,3
36,-11.0,-261.0,-24.0,-42.0,60.0,-12.0,-74.0,-982.0,11.0,3
37,-13.0,-253.0,-22.0,-46.0,53.0,-10.0,-74.0,-973.0,11.0,3
38,-14.0,-246.0,-21.0,-49.0,50.0,-13.0,-81.0,-974.0,12.0,3
39,-13.0,-266.0,-12.0,-51.0,44.0,-11.0,-83.0,-973.0,8.0,3
40,-17.0,-251.0,-25.0,-54.0,38.0,-14.0,-81.0,-968.0,12.0,3
41,-12.0,-248.0,-20.0,-55.0,33.0,-12.0,-90.0,-964.0,7.0,3
42,-17.0,-249.0,-21.0,-58.0,26.0,-15.0,-93.0,-962.0,1.0,3
43,-18.0,-248.0,-19.0,-61.0,21.0,-11.0,-97.0,-958.0,3.0,3
44,-19.0,-247.0,-22.0,-64.0,15.0,-13.0,-100.0,-955.0,-5.0,3
45,-21.0,-248.0,-25.0,-69.0,9.0,-9.0,-103.0,-952.0,-5.0,3
46,-19.0,-243.0,-25.0,-73.0,0.0,-8.0,-106.0,-948.0,-8.0,3
47,-24.0,-246.0,-24.0,-81.0,-9.0,-4.0,-113.0,-946.0,-10.0,3
48,-23.0,-245.0,-24.0,-88.0,-18.0,-2.0,-114.0,-936.0,-11.0,3
49,-25.0,-241.0,-26.0,-95.0,-28.0,2.0,-116.0,-931.0,-21.0,3
50,-26.0,-244.0,-29.0,-104.0,-40.0,2.0,-122.0,-930.0,-17.0,3
51,-29.0,-240.0,-29.0,-113.0,-54.0,8.0,-126.0,-928.0,-14.0,3
52,-29.0,-239.0,-27.0,-121.0,-67.0,9.0,-130.0,-927.0,-10.0,3
53,-29.0,-239.0,-26.0,-130.0,-78.0,14.0,-130.0,-927.0,-12.0,3
54,-30.0,-242.0,-24.0,-140.0,-93.0,17.0,-133.0,-933.0,-8.0,3
55,-29.0,-243.0,-25.0,-149.0,-105.0,23.0,-137.0,-931.0,-9.0,3
56,-30.0,-241.0,-24.0,-156.0,-117.0,24.0,-136.0,-934.0,-5.0,3
57,-29.0,-246.0,-21.0,-162.0,-128.0,32.0,-143.0,-934.0,1.0,3
58,-35.0,-245.0,-23.0,-164.0,-140.0,32.0,-147.0,-940.0,-1.0,3
59,-32.0,-246.0,-20.0,-165.0,-152.0,39.0,-150.0,-950.0,2.0,3
60,-34.0,-244.0,-21.0,-165.0,-164.0,40.0,-151.0,-953.0,5.0,3
61,-32.0,-245.0,-22.0,-166.0,-180.0,47.0,-150.0,-950.0,6.0,3
62,-34.0,-249.0,-24.0,-165.0,-191.0,48.0,-157.0,-947.0,7.0,3
63,-35.0,-247.0,-21.0,-163.0,-204.0,51.0,-152.0,-952.0,2.0,3
64,-35.0,-245.0,-24.0,-164.0,-215.0,52.0,-150.0,-955.0,4.0,3
65,-32.0,-248.0,-15.0,-165.0,-225.0,57.0,-153.0,-953.0,-1.0,3
66,-32.0,-250.0,-20.0,-167.0,-237.0,56.0,-160.0,-953.0,7.0,3
67,-33.0,-243.0,-19.0,-172.0,-250.0,60.0,-156.0,-946.0,7.0,3
68,-32.0,-247.0,-20.0,-178.0,-261.0,59.0,-160.0,-942.0,5.0,3
69,-33.0,-245.0,-26.0,-184.0,-273.0,63.0,-158.0,-938.0,7.0,3
70,-36.0,-245.0,-23.0,-190.0,-283.0,61.0,-162.0,-937.0,11.0,3
71,-35.0,-245.0,-15.0,-194.0,-292.0,63.0,-156.0,-932.0,13.0,3
72,-34.0,-242.0,-19.0,-199.0,-299.0,61.0,-149.0,-933.0,12.0,3
73,-31.0,-242.0,-17.0,-204.0,-304.0,62.0,-139.0,-930.0,17.0,3
74,-30.0,-239.0,-16.0,-212.0,-305.0,57.0,-135.0,-926.0,27.0,3
75,-26.0,-242.0,-15.0,-221.0,-303.0,54.0,-130.0,-931.0,36.0,3
76,-26.0,-239.0,-8.0,-231.0,-297.0,46.0,-122.0,-926.0,53.0,3
77,-26.0,-239.0,-5.0,-244.0,-291.0,41.0,-115.0,-924.0,66.0,3
78,-19.0,-238.0,-2.0,-252.0,-281.0,32.0,-103.0,-921.0,82.0,3
79,-16.0,-241.0,6.0,-259.0,-269.0,26.0,-100.0,-926.0,93.0,3
80,-17.0,-241.0,3.0,-261.0,-254.0,17.0,-92.0,-931.0,105.0,3
81,-13.0,-244.0,6.0,-260.0,-237.0,14.0,-78.0,-937.0,119.0,3
82,-12.0,-249.0,10.0,-259.0,-217.0,5.0,-63.0,-945.0,130.0,3
83,-10.0,-245.0,11.0,-257.0,-198.0,0.0,-48.0,-954.0,145.0,3
84,-6.0,-249.0,14.0,-257.0,-176.0,-13.0,-34.0,-966.0,160.0,3
85,-1.0,-252.0,17.0,-257.0,-156.0,-22.0,-22.0,-971.0,171.0,3
86,2.0,-256.0,28.0,-255.0,-138.0,-37.0,-11.0,-985.0,185.0,3
87,3.0,-260.0,28.0,-254.0,-123.0,-49.0,-10.0,-1007.0,207.0,3
88,5.0,-262.0,36.0,-248.0,-111.0,-64.0,1.0,-1022.0,221.0,3
89,1.0,-266.0,38.0,-239.0,-105.0,-75.0,-2.0,-1028.0,232.0,3
90,4.0,-270.0,39.0,-222.0,-99.0,-90.0,-2.0,-1051.0,241.0,3
91,0.0,-276.0,41.0,-200.0,-95.0,-99.0,-11.0,-1067.0,245.0,3
92,-3.0,-280.0,37.0,-164.0,-91.0,-113.0,-20.0,-1081.0,247.0,3
93,-3.0,-286.0,37.0,-129.0,-88.0,-123.0,-35.0,-1107.0,237.0,3
94,-4.0,-291.0,35.0,-98.0,-83.0,-134.0,-42.0,-1123.0,224.0,3
95,-12.0,-295.0,30.0,-66.0,-77.0,-141.0,-63.0,-1133.0,203.0,3
96,-14.0,-296.0,26.0,-39.0,-69.0,-151.0,-86.0,-1144.0,190.0,3
97,-20.0,-298.0,23.0,-17.0,-59.0,-154.0,-102.0,-1152.0,170.0,3
98,-28.0,-296.0,15.0,-3.0,-48.0,-158.0,-119.0,-1152.0,149.0,3
99,-30.0,-296.0,9.0,2.0,-37.0,-156.0,-139.0,-1144.0,132.0,3
100,-33.0,-294.0,5.0,1.0,-26.0,-155.0,-160.0,-1143.0,111.0,3
101,-38.0,-291.0,-3.0,-6.0,-15.0,-146.0,-169.0,-1133.0,95.0,3
102,-40.0,-287.0,1.0,-18.0,-9.0,-140.0,-183.0,-1126.0,81.0,3
103,-44.0,-283.0,-3.0,-29.0,-1.0,-126.0,-197.0,-1107.0,69.0,3
104,-45.0,-283.0,-9.0,-40.0,2.0,-115.0,-205.0,-1093.0,53.0,3
105,-49.0,-278.0,-14.0,-49.0,1.0,-101.0,-212.0,-1081.0,42.0,3
106,-53.0,-275.0,-15.0,-57.0,-2.0,-90.0,-224.0,-1062.0,28.0,3
107,-55.0,-270.0,-17.0,-55.0,-10.0,-77.0,-230.0,-1056.0,14.0,3
108,-56.0,-268.0,-22.0,-55.0,-20.0,-70.0,-241.0,-1046.0,9.0,3
109,-62.0,-260.0,-25.0,-54.0,-32.0,-60.0,-252.0,-1021.0,2.0,3
110,-62.0,-254.0,-22.0,-56.0,-47.0,-56.0,-261.0,-985.0,2.0,3
111,-64.0,-249.0,-26.0,-63.0,-63.0,-49.0,-269.0,-960.0,3.0,3
112,-65.0,-245.0,-19.0,-74.0,-79.0,-47.0,-276.0,-936.0,14.0,3
113,-67.0,-236.0,-16.0,-85.0,-92.0,-41.0,-274.0,-917.0,23.0,3
114,-68.0,-230.0,-17.0,-97.0,-106.0,-40.0,-279.0,-899.0,38.0,3
115,-67.0,-228.0,-11.0,-109.0,-117.0,-34.0,-278.0,-892.0,53.0,3
116,-64.0,-228.0,-7.0,-118.0,-124.0,-30.0,-271.0,-883.0,57.0,3
117,-66.0,-228.0,-4.0,-127.0,-128.0,-22.0,-259.0,-882.0,68.0,3
118,-61.0,-228.0,-6.0,-133.0,-129.0,-19.0,-255.0,-886.0,76.0,3
119,-59.0,-233.0,-1.0,-136.0,-126.0,-10.0,-246.0,-895.0,88.0,3
120,-59.0,-234.0,4.0,-132.0,-124.0,-4.0,-245.0,-904.0,90.0,3
121,-50.0,-238.0,3.0,-119.0,-121.0,5.0,-225.0,-911.0,90.0,3
122,-46.0,-241.0,-4.0,-107.0,-120.0,10.0,-207.0,-920.0,87.0,3
123,-41.0,-242.0,-5.0,-96.0,-120.0,18.0,-185.0,-940.0,80.0,3
124,-40.0,-245.0,-7.0,-86.0,-120.0,25.0,-173.0,-952.0,70.0,3
125,-36.0,-252.0,-8.0,-75.0,-122.0,38.0,-159.0,-965.0,69.0,3
126,-32.0,-253.0,-15.0,-60.0,-123.0,51.0,-150.0,-977.0,54.0,3
127,-27.0,-254.0,-9.0,-46.0,-124.0,71.0,-132.0,-982.0,39.0,3
128,-24.0,-258.0,-17.0,-38.0,-125.0,86.0,-112.0,-1000.0,22.0,3
129,-18.0,-260.0,-23.0,-34.0,-122.0,103.0,-102.0,-1014.0,10.0,3
130,-12.0,-264.0,-23.0,-29.0,-115.0,113.0,-86.0,-1022.0,-1.0,3
131,-10.0,-265.0,-26.0,-29.0,-107.0,124.0,-73.0,-1033.0,-9.0,3
132,-9.0,-265.0,-25.0,-31.0,-96.0,127.0,-55.0,-1046.0,-11.0,3
133,-5.0,-266.0,-29.0,-32.0,-82.0,131.0,-35.0,-1053.0,-23.0,3
134,1.0,-271.0,-36.0,-34.0,-72.0,125.0,-22.0,-1068.0,-33.0,3
135,2.0,-273.0,-38.0,-38.0,-57.0,122.0,-10.0,-1072.0,-50.0,3
136,7.0,-275.0,-41.0,-36.0,-46.0,112.0,5.0,-1081.0,-64.0,3
137,12.0,-277.0,-43.0,-32.0,-33.0,103.0,17.0,-1083.0,-81.0,3
138,15.0,-279.0,-50.0,-26.0,-25.0,87.0,25.0,-1087.0,-98.0,3
139,13.0,-279.0,-47.0,-20.0,-16.0,73.0,34.0,-1079.0,-105.0,3
140,18.0,-273.0,-52.0,-13.0,-9.0,53.0,34.0,-1076.0,-108.0,3
141,17.0,-276.0,-56.0,-7.0,-4.0,35.0,38.0,-1070.0,-122.0,3
142,18.0,-271.0,-55.0,-1.0,2.0,11.0,33.0,-1061.0,-133.0,3
143,15.0,-267.0,-59.0,2.0,10.0,-12.0,30.0,-1052.0,-140.0,3
144,14.0,-263.0,-61.0,0.0,20.0,-43.0,27.0,-1036.0,-143.0,3
145,12.0,-264.0,-58.0,-5.0,31.0,-69.0,31.0,-1028.0,-149.0,3
146,15.0,-259.0,-58.0,-15.0,45.0,-103.0,27.0,-1022.0,-144.0,3
147,13.0,-256.0,-58.0,-27.0,61.0,-135.0,27.0,-1009.0,-143.0,3
148,10.0,-252.0,-59.0,-41.0,79.0,-173.0,29.0,-998.0,-138.0,3
149,12.0,-251.0,-55.0,-56.0,100.0,-208.0,27.0,-975.0,-127.0,3
150,14.0,-249.0,-49.0,-72.0,112.0,-234.0,25.0,-970.0,-108.0,3
151,13.0,-246.0,-48.0,-82.0,124.0,-258.0,26.0,-957.0,-95.0,3
152,12.0,-243.0,-44.0,-90.0,134.0,-282.0,33.0,-946.0,-81.0,3
153,15.0,-244.0,-42.0,-97.0,140.0,-298.0,43.0,-939.0,-64.0,3
154,15.0,-241.0,-31.0,-105.0,146.0,-318.0,38.0,-926.0,-53.0,3
155,14.0,-236.0,-30.0,-112.0,146.0,-328.0,40.0,-917.0,-33.0,3
156,13.0,-235.0,-29.0,-118.0,137.0,-337.0,32.0,-912.0,-15.0,3
157,11.0,-235.0,-20.0,-120.0,122.0,-337.0,31.0,-909.0,-2.0,3
158,8.0,-233.0,-18.0,-117.0,96.0,-334.0,17.0,-904.0,16.0,3
159,5.0,-230.0,-16.0,-114.0,66.0,-323.0,9.0,-903.0,25.0,3
160,6.0,-235.0,-15.0,-111.0,28.0,-314.0,2.0,-906.0,40.0,3
161,-1.0,-235.0,-10.0,-106.0,-15.0,-297.0,-9.0,-912.0,44.0,3
162,-3.0,-241.0,-9.0,-107.0,-65.0,-283.0,-15.0,-918.0,54.0,3
163,-3.0,-241.0,-7.0,-106.0,-117.0,-259.0,-24.0,-936.0,57.0,3
164,-7.0,-246.0,-1.0,-109.0,-179.0,-241.0,-33.0,-948.0,73.0,3
165,-6.0,-251.0,-1.0,-111.0,-230.0,-220.0,-38.0,-966.0,85.0,3
166,-12.0,-252.0,1.0,-110.0,-282.0,-201.0,-50.0,-982.0,83.0,3
167,-9.0,-260.0,-1.0,-104.0,-332.0,-179.0,-54.0,-1006.0,89.0,3
168,-11.0,-262.0,4.0,-99.0,-377.0,-163.0,-57.0,-1028.0,94.0,3
169,-11.0,-264.0,-1.0,-88.0,-417.0,-148.0,-55.0,-1037.0,95.0,3
170,-8.0,-274.0,0.0,-73.0,-449.0,-141.0,-57.0,-1055.0,93.0,3
171,-7.0,-276.0,-5.0,-52.0,-466.0,-134.0,-54.0,-1071.0,85.0,3
172,-8.0,-278.0,-7.0,-26.0,-472.0,-131.0,-55.0,-1084.0,76.0,3
173,-8.0,-280.0,-7.0,-1.0,-466.0,-127.0,-44.0,-1089.0,62.0,3
174,-2.0,-278.0,-9.0,18.0,-455.0,-130.0,-37.0,-1091.0,50.0,3
175,0.0,-277.0,-14.0,28.0,-438.0,-131.0,-23.0,-1084.0,31.0,3
176,8.0,-275.0,-15.0,27.0,-422.0,-141.0,1.0,-1079.0,20.0,3
177,11.0,-269.0,-17.0,13.0,-404.0,-153.0,14.0,-1064.0,24.0,3
178,15.0,-266.0,-22.0,-5.0,-380.0,-178.0,31.0,-1057.0,22.0,3
179,20.0,-264.0,-17.0,-34.0,-362.0,-198.0,51.0,-1044.0,30.0,3
180,24.0,-265.0,-11.0,-61.0,-346.0,-224.0,65.0,-1028.0,45.0,3
181,28.0,-261.0,-14.0,-86.0,-334.0,-244.0,81.0,-1029.0,50.0,3
182,30.0,-259.0,-7.0,-107.0,-322.0,-269.0,102.0,-1014.0,56.0,3
183,33.0,-257.0,-10.0,-126.0,-311.0,-291.0,116.0,-1008.0,65.0,3
184,41.0,-255.0,-4.0,-141.0,-302.0,-315.0,131.0,-997.0,70.0,3
185,43.0,-253.0,-1.0,-148.0,-294.0,-332.0,145.0,-972.0,80.0,3
186,48.0,-249.0,2.0,-151.0,-286.0,-353.0,159.0,-961.0,83.0,3
187,51.0,-244.0,-1.0,-148.0,-278.0,-366.0,172.0,-946.0,92.0,3
188,50.0,-240.0,3.0,-142.0,-269.0,-380.0,183.0,-937.0,95.0,3
189,53.0,-239.0,4.0,-131.0,-260.0,-388.0,186.0,-926.0,97.0,3
190,53.0,-235.0,5.0,-117.0,-247.0,-396.0,188.0,-909.0,108.0,3
191,53.0,-231.0,1.0,-103.0,-236.0,-396.0,193.0,-906.0,103.0,3
192,54.0,-230.0,5.0,-88.0,-221.0,-398.0,188.0,-893.0,99.0,3
193,53.0,-228.0,6.0,-74.0,-202.0,-393.0,192.0,-885.0,102.0,3
194,52.0,-227.0,5.0,-53.0,-187.0,-391.0,179.0,-877.0,104.0,3
195,51.0,-224.0,2.0,-39.0,-173.0,-385.0,180.0,-877.0,97.0,3
196,48.0,-219.0,5.0,-27.0,-155.0,-382.0,162.0,-866.0,103.0,3
197,45.0,-218.0,5.0,-21.0,-139.0,-371.0,153.0,-858.0,95.0,3
198,43.0,-217.0,2.0,-16.0,-124.0,-362.0,146.0,-852.0,91.0,3
199,41.0,-218.0,-1.0,-15.0,-110.0,-348.0,137.0,-848.0,88.0,3
200,39.0,-217.0,0.0,-22.0,-96.0,-338.0,127.0,-849.0,83.0,3
201,37.0,-218.0,-2.0,-30.0,-82.0,-323.0,114.0,-849.0,81.0,3
202,34.0,-217.0,-2.0,-39.0,-69.0,-309.0,107.0,-847.0,84.0,3
203,30.0,-218.0,-4.0,-52.0,-56.0,-290.0,103.0,-853.0,82.0,3
204,25.0,-219.0,1.0,-64.0,-44.0,-278.0,88.0,-857.0,82.0,3
205,23.0,-221.0,1.0,-77.0,-28.0,-260.0,77.0,-859.0,81.0,3
206,22.0,-222.0,0.0,-94.0,-14.0,-249.0,63.0,-876.0,80.0,3
207,18.0,-225.0,0.0,-109.0,-2.0,-228.0,57.0,-885.0,91.0,3
208,18.0,-230.0,2.0,-121.0,9.0,-213.0,52.0,-891.0,97.0,3
209,18.0,-235.0,3.0,-128.0,19.0,-197.0,50.0,-907.0,111.0,3
210,15.0,-236.0,8.0,-129.0,26.0,-184.0,41.0,-917.0,115.0,3
211,15.0,-240.0,9.0,-126.0,35.0,-167.0,40.0,-928.0,130.0,3
212,13.0,-243.0,13.0,-113.0,44.0,-156.0,37.0,-935.0,136.0,3
213,15.0,-244.0,11.0,-96.0,52.0,-143.0,37.0,-949.0,144.0,3
214,17.0,-250.0,16.0,-78.0,58.0,-135.0,37.0,-951.0,147.0,3
215,14.0,-249.0,16.0,-57.0,60.0,-124.0,34.0,-955.0,150.0,3
216,15.0,-249.0,17.0,-36.0,58.0,-116.0,39.0,-955.0,144.0,3
217,18.0,-248.0,16.0,-17.0,53.0,-105.0,54.0,-948.0,146.0,3
218,21.0,-249.0,12.0,0.0,46.0,-94.0,63.0,-954.0,138.0,3
219,16.0,-246.0,8.0,5.0,42.0,-79.0,54.0,-955.0,128.0,3
220,16.0,-251.0,9.0,-2.0,39.0,-74.0,45.0,-959.0,117.0,3
221,18.0,-248.0,9.0,-20.0,30.0,-66.0,60.0,-966.0,117.0,3
222,22.0,-251.0,8.0,-42.0,11.0,-64.0,64.0,-971.0,118.0,3
223,20.0,-250.0,8.0,-61.0,-4.0,-62.0,69.0,-971.0,113.0,3
224,24.0,-253.0,6.0,-68.0,-24.0,-62.0,71.0,-981.0,121.0,3
225,22.0,-254.0,5.0,-64.0,-50.0,-57.0,73.0,-981.0,118.0,3
226,25.0,-255.0,6.0,-50.0,-69.0,-56.0,76.0,-978.0,101.0,3
227,24.0,-252.0,2.0,-41.0,-75.0,-53.0,82.0,-978.0,89.0,3
228,25.0,-251.0,-3.0,-37.0,-80.0,-58.0,82.0,-978.0,79.0,3
229,25.0,-253.0,-4.0,-37.0,-85.0,-62.0,78.0,-969.0,77.0,3
230,25.0,-251.0,-7.0,-41.0,-95.0,-70.0,77.0,-969.0,70.0,3
231,25.0,-248.0,-5.0,-44.0,-102.0,-76.0,67.0,-965.0,67.0,3
232,24.0,-250.0,-4.0,-51.0,-111.0,-85.0,71.0,-964.0,63.0,3
233,21.0,-252.0,-5.0,-56.0,-118.0,-90.0,64.0,-969.0,73.0,3
234,21.0,-253.0,-4.0,-59.0,-124.0,-101.0,64.0,-980.0,79.0,3
235,18.0,-256.0,-2.0,-61.0,-127.0,-106.0,62.0,-999.0,89.0,3
236,20.0,-259.0,4.0,-63.0,-127.0,-112.0,54.0,-1010.0,97.0,3
237,20.0,-260.0,7.0,-65.0,-127.0,-111.0,53.0,-1022.0,112.0,3
238,17.0,-262.0,11.0,-71.0,-128.0,-111.0,42.0,-1031.0,128.0,3
239,14.0,-268.0,14.0,-80.0,-130.0,-103.0,42.0,-1048.0,148.0,3
240,18.0,-278.0,20.0,-89.0,-131.0,-95.0,44.0,-1077.0,165.0,3
241,18.0,-285.0,20.0,-88.0,-132.0,-79.0,45.0,-1104.0,178.0,3
242,17.0,-291.0,24.0,-80.0,-134.0,-60.0,55.0,-1135.0,184.0,3
243,20.0,-302.0,24.0,-67.0,-133.0,-33.0,65.0,-1172.0,193.0,3
244,25.0,-319.0,26.0,-46.0,-133.0,-7.0,71.0,-1217.0,204.0,3
245,23.0,-323.0,33.0,-16.0,-130.0,27.0,79.0,-1255.0,216.0,3
246,27.0,-334.0,36.0,26.0,-127.0,59.0,73.0,-1279.0,233.0,3
247,26.0,-339.0,34.0,79.0,-126.0,95.0,75.0,-1303.0,242.0,3
248,25.0,-341.0,47.0,136.0,-130.0,121.0,81.0,-1323.0,248.0,3
249,27.0,-343.0,47.0,193.0,-138.0,147.0,78.0,-1331.0,255.0,3
250,30.0,-343.0,46.0,244.0,-149.0,175.0,75.0,-1331.0,258.0,3
251,25.0,-341.0,47.0,284.0,-166.0,197.0,76.0,-1326.0,259.0,3
252,26.0,-337.0,41.0,302.0,-179.0,213.0,80.0,-1303.0,252.0,3
253,28.0,-328.0,40.0,287.0,-187.0,232.0,87.0,-1285.0,240.0,3
254,31.0,-324.0,36.0,244.0,-188.0,244.0,100.0,-1256.0,225.0,3
255,31.0,-314.0,27.0,173.0,-183.0,262.0,99.0,-1222.0,209.0,3
256,28.0,-301.0,25.0,78.0,-173.0,278.0,87.0,-1186.0,191.0,3
257,20.0,-289.0,21.0,-36.0,-171.0,299.0,62.0,-1152.0,182.0,3
258,18.0,-282.0,22.0,-167.0,-178.0,313.0,58.0,-1114.0,181.0,3
259,18.0,-271.0,23.0,-308.0,-195.0,330.0,58.0,-1089.0,186.0,3
260,17.0,-269.0,25.0,-449.0,-214.0,340.0,61.0,-1068.0,184.0,3
261,20.0,-268.0,25.0,-577.0,-225.0,350.0,67.0,-1056.0,175.0,3
262,28.0,-271.0,17.0,-683.0,-227.0,346.0,79.0,-1065.0,163.0,3
263,33.0,-275.0,13.0,-762.0,-213.0,340.0,110.0,-1085.0,132.0,3
264,46.0,-290.0,3.0,-795.0,-185.0,336.0,143.0,-1116.0,95.0,3
265,53.0,-307.0,-11.0,-765.0,-145.0,341.0,182.0,-1169.0,54.0,3
266,63.0,-323.0,-28.0,-634.0,-100.0,344.0,217.0,-1221.0,-14.0,3
267,71.0,-332.0,-55.0,-454.0,-81.0,353.0,248.0,-1270.0,-107.0,3
268,80.0,-338.0,-82.0,-254.0,-81.0,365.0,280.0,-1288.0,-214.0,3
269,85.0,-327.0,-107.0,-77.0,-90.0,382.0,299.0,-1273.0,-314.0,3
270,88.0,-319.0,-120.0,52.0,-91.0,387.0,304.0,-1232.0,-392.0,3
271,84.0,-298.0,-125.0,137.0,-78.0,384.0,302.0,-1167.0,-418.0,3
272,86.0,-275.0,-120.0,200.0,-54.0,366.0,288.0,-1076.0,-406.0,3
273,79.0,-245.0,-113.0,261.0,-25.0,341.0,273.0,-956.0,-387.0,3
274,75.0,-211.0,-115.0,315.0,10.0,313.0,267.0,-857.0,-371.0,3
275,69.0,-189.0,-109.0,344.0,44.0,288.0,248.0,-740.0,-352.0,3
276,69.0,-166.0,-102.0,333.0,82.0,258.0,239.0,-682.0,-333.0,3
277,59.0,-152.0,-93.0,270.0,115.0,231.0,222.0,-626.0,-301.0,3
278,59.0,-136.0,-84.0,172.0,142.0,200.0,218.0,-564.0,-257.0,3
279,55.0,-124.0,-79.0,60.0,171.0,167.0,197.0,-512.0,-230.0,3
280,53.0,-115.0,-73.0,-61.0,218.0,144.0,184.0,-486.0,-205.0,3
281,51.0,-113.0,-69.0,-214.0,270.0,120.0,167.0,-465.0,-180.0,3
282,43.0,-109.0,-60.0,-334.0,331.0,99.0,152.0,-454.0,-143.0,3
283,41.0,-118.0,-53.0,-431.0,397.0,80.0,142.0,-466.0,-118.0,3
284,34.0,-122.0,-44.0,-491.0,459.0,58.0,116.0,-485.0,-87.0,3
285,26.0,-134.0,-32.0,-500.0,510.0,41.0,91.0,-513.0,-47.0,3
286,20.0,-145.0,-23.0,-451.0,544.0,33.0,78.0,-543.0,-14.0,3
287,27.0,-157.0,-19.0,-350.0,564.0,36.0,85.0,-590.0,6.0,3
288,31.0,-168.0,-19.0,-214.0,577.0,34.0,101.0,-647.0,17.0,3
289,35.0,-182.0,-16.0,-72.0,592.0,33.0,111.0,-690.0,31.0,3
290,36.0,-190.0,-15.0,61.0,613.0,19.0,125.0,-731.0,35.0,3
291,38.0,-200.0,-13.0,176.0,634.0,1.0,125.0,-785.0,46.0,3
292,37.0,-208.0,-9.0,265.0,647.0,-26.0,124.0,-818.0,57.0,3
293,35.0,-217.0,-3.0,328.0,662.0,-54.0,102.0,-845.0,69.0,3
294,28.0,-228.0,-5.0,367.0,673.0,-89.0,89.0,-879.0,79.0,3
295,15.0,-232.0,5.0,390.0,680.0,-119.0,51.0,-900.0,105.0,3
296,1.0,-239.0,8.0,405.0,684.0,-142.0,0.0,-914.0,116.0,3
297,-11.0,-245.0,9.0,427.0,683.0,-147.0,-67.0,-939.0,126.0,3
298,-28.0,-253.0,13.0,447.0,675.0,-134.0,-121.0,-975.0,130.0,3
299,-35.0,-264.0,6.0,459.0,658.0,-109.0,-154.0,-1030.0,115.0,3
300,-45.0,-274.0,10.0,444.0,639.0,-87.0,-180.0,-1082.0,114.0,3
301,-54.0,-284.0,6.0,411.0,630.0,-43.0,-234.0,-1106.0,113.0,3
302,-55.0,-297.0,-4.0,362.0,651.0,39.0,-252.0,-1154.0,87.0,3
303,-57.0,-308.0,-10.0,281.0,703.0,133.0,-260.0,-1207.0,49.0,3
304,-55.0,-319.0,-22.0,176.0,781.0,220.0,-250.0,-1245.0,20.0,3
305,-52.0,-330.0,-30.0,65.0,867.0,290.0,-233.0,-1286.0,-25.0,3
306,-57.0,-339.0,-43.0,-42.0,941.0,319.0,-255.0,-1346.0,-79.0,3
307,-65.0,-357.0,-56.0,-150.0,994.0,338.0,-285.0,-1407.0,-134.0,3
308,-73.0,-375.0,-64.0,-266.0,1024.0,360.0,-307.0,-1463.0,-182.0,3
309,-77.0,-383.0,-69.0,-419.0,1003.0,391.0,-331.0,-1502.0,-197.0,3
310,-74.0,-388.0,-71.0,-540.0,938.0,443.0,-301.0,-1507.0,-183.0,3
311,-59.0,-383.0,-57.0,-640.0,844.0,511.0,-254.0,-1488.0,-153.0,3
312,-49.0,-370.0,-53.0,-705.0,743.0,577.0,-209.0,-1451.0,-116.0,3
313,-39.0,-363.0,-39.0,-731.0,650.0,630.0,-173.0,-1411.0,-78.0,3
314,-34.0,-354.0,-27.0,-726.0,568.0,669.0,-153.0,-1375.0,-32.0,3
315,-29.0,-344.0,-20.0,-696.0,504.0,697.0,-136.0,-1328.0,18.0,3
316,-19.0,-333.0,-4.0,-646.0,461.0,706.0,-104.0,-1274.0,77.0,3
317,-15.0,-318.0,6.0,-581.0,437.0,707.0,-92.0,-1217.0,111.0,3
318,-13.0,-301.0,11.0,-519.0,432.0,698.0,-92.0,-1172.0,131.0,3
319,-10.0,-294.0,13.0,-464.0,439.0,686.0,-60.0,-1137.0,158.0,3
320,-9.0,-289.0,19.0,-415.0,446.0,648.0,-48.0,-1110.0,165.0,3
321,-11.0,-278.0,21.0,-373.0,454.0,607.0,-62.0,-1082.0,165.0,3
322,-15.0,-279.0,22.0,-334.0,457.0,561.0,-90.0,-1059.0,173.0,3
323,-20.0,-272.0,22.0,-280.0,454.0,528.0,-101.0,-1057.0,171.0,3
324,-22.0,-272.0,21.0,-230.0,441.0,496.0,-111.0,-1053.0,170.0,3
325,-24.0,-270.0,18.0,-174.0,425.0,464.0,-118.0,-1046.0,163.0,3
326,-29.0,-269.0,18.0,-115.0,407.0,429.0,-128.0,-1045.0,156.0,3
327,-27.0,-272.0,13.0,-59.0,392.0,397.0,-135.0,-1048.0,144.0,3
328,-32.0,-269.0,16.0,-5.0,380.0,366.0,-146.0,-1051.0,143.0,3
329,-33.0,-272.0,11.0,39.0,369.0,341.0,-147.0,-1049.0,146.0,3
330,-30.0,-272.0,17.0,71.0,361.0,319.0,-137.0,-1057.0,145.0,3
331,-32.0,-272.0,18.0,91.0,357.0,300.0,-139.0,-1059.0,152.0,3
332,-33.0,-274.0,14.0,101.0,357.0,279.0,-157.0,-1070.0,160.0,3
333,-39.0,-271.0,21.0,93.0,357.0,259.0,-165.0,-1068.0,165.0,3
334,-40.0,-269.0,23.0,73.0,357.0,240.0,-184.0,-1061.0,177.0,3
335,-44.0,-272.0,22.0,44.0,349.0,227.0,-186.0,-1068.0,186.0,3
336,-43.0,-275.0,32.0,7.0,329.0,213.0,-187.0,-1071.0,209.0,3
337,-44.0,-276.0,38.0,-21.0,293.0,210.0,-186.0,-1072.0,242.0,3
338,-41.0,-277.0,46.0,-15.0,257.0,209.0,-178.0,-1074.0,264.0,3
339,-41.0,-279.0,51.0,17.0,218.0,210.0,-170.0,-1074.0,280.0,3
340,-35.0,-276.0,50.0,74.0,180.0,208.0,-157.0,-1059.0,275.0,3
341,-38.0,-266.0,48.0,138.0,147.0,202.0,-156.0,-1040.0,265.0,3
342,-38.0,-256.0,41.0,195.0,118.0,191.0,-164.0,-996.0,252.0,3
343,-41.0,-245.0,34.0,244.0,94.0,180.0,-165.0,-940.0,227.0,3
344,-43.0,-228.0,30.0,276.0,69.0,170.0,-177.0,-891.0,201.0,3
345,-42.0,-212.0,27.0,289.0,45.0,168.0,-180.0,-828.0,185.0,3
346,-46.0,-195.0,22.0,276.0,18.0,156.0,-195.0,-766.0,179.0,3
347,-48.0,-179.0,20.0,236.0,-9.0,140.0,-201.0,-717.0,184.0,3
348,-47.0,-169.0,26.0,174.0,-35.0,114.0,-208.0,-668.0,193.0,3
349,-49.0,-156.0,32.0,96.0,-62.0,84.0,-205.0,-635.0,199.0,3
350,-47.0,-149.0,29.0,10.0,-86.0,29.0,-198.0,-591.0,208.0,3
351,-40.0,-143.0,31.0,-106.0,-106.0,-30.0,-172.0,-578.0,213.0,3
352,-40.0,-141.0,33.0,-208.0,-115.0,-98.0,-160.0,-566.0,211.0,3
353,-32.0,-145.0,34.0,-304.0,-111.0,-161.0,-133.0,-563.0,223.0,3
354,-21.0,-142.0,32.0,-378.0,-97.0,-220.0,-117.0,-554.0,233.0,3
355,-16.0,-144.0,33.0,-425.0,-64.0,-272.0,-91.0,-579.0,219.0,3
356,-9.0,-148.0,34.0,-454.0,-11.0,-323.0,-58.0,-593.0,209.0,3
357,2.0,-159.0,24.0,-449.0,54.0,-366.0,-21.0,-601.0,197.0,3
358,10.0,-157.0,15.0,-407.0,122.0,-407.0,-2.0,-600.0,153.0,3
359,9.0,-151.0,-3.0,-325.0,180.0,-434.0,20.0,-575.0,79.0,3
360,5.0,-147.0,-42.0,-218.0,214.0,-457.0,15.0,-561.0,-45.0,3
361,-4.0,-139.0,-70.0,-103.0,207.0,-469.0,-16.0,-540.0,-210.0,3
362,-20.0,-135.0,-116.0,15.0,149.0,-487.0,-80.0,-515.0,-392.0,3
363,-36.0,-132.0,-160.0,152.0,30.0,-506.0,-135.0,-489.0,-568.0,3
364,-52.0,-133.0,-205.0,361.0,-152.0,-522.0,-199.0,-494.0,-713.0,3
365,-65.0,-147.0,-226.0,663.0,-409.0,-509.0,-243.0,-526.0,-820.0,3
366,-72.0,-164.0,-235.0,1058.0,-584.0,-476.0,-294.0,-597.0,-878.0,3
367,-71.0,-168.0,-236.0,1299.0,-668.0,-437.0,-296.0,-653.0,-875.0,3
368,-53.0,-166.0,-222.0,1417.0,-680.0,-397.0,-251.0,-673.0,-831.0,3
369,-36.0,-156.0,-206.0,1388.0,-637.0,-367.0,-188.0,-669.0,-767.0,3
370,-35.0,-149.0,-190.0,1210.0,-565.0,-350.0,-174.0,-647.0,-698.0,3
371,-52.0,-141.0,-187.0,925.0,-484.0,-325.0,-225.0,-624.0,-664.0,3
372,-75.0,-142.0,-187.0,586.0,-423.0,-281.0,-289.0,-628.0,-666.0,3
373,-73.0,-141.0,-185.0,245.0,-417.0,-212.0,-291.0,-621.0,-669.0,3
374,-70.0,-147.0,-187.0,-63.0,-461.0,-106.0,-277.0,-632.0,-663.0,3
375,-55.0,-154.0,-179.0,-331.0,-531.0,43.0,-231.0,-641.0,-632.0,3
376,-37.0,-160.0,-155.0,-549.0,-572.0,189.0,-176.0,-649.0,-548.0,3
377,-25.0,-185.0,-129.0,-688.0,-563.0,331.0,-129.0,-703.0,-436.0,3
378,-8.0,-217.0,-99.0,-720.0,-521.0,506.0,-71.0,-817.0,-320.0,3
379,-6.0,-241.0,-75.0,-633.0,-476.0,648.0,7.0,-965.0,-214.0,3
380,16.0,-300.0,-53.0,-406.0,-497.0,771.0,68.0,-1142.0,-140.0,3
381,30.0,-344.0,-52.0,-178.0,-576.0,881.0,106.0,-1312.0,-106.0,3
382,45.0,-386.0,-49.0,18.0,-665.0,952.0,142.0,-1479.0,-111.0,3
383,59.0,-415.0,-53.0,98.0,-730.0,959.0,205.0,-1606.0,-116.0,3
384,62.0,-427.0,-41.0,23.0,-767.0,904.0,218.0,-1678.0,-86.0,3
385,61.0,-432.0,-13.0,-176.0,-787.0,819.0,212.0,-1707.0,8.0,3
386,53.0,-444.0,18.0,-416.0,-807.0,737.0,193.0,-1729.0,156.0,3
387,44.0,-460.0,36.0,-620.0,-850.0,662.0,155.0,-1777.0,230.0,3
388,23.0,-472.0,42.0,-746.0,-913.0,564.0,61.0,-1820.0,256.0,3
389,1.0,-484.0,38.0,-783.0,-976.0,474.0,-28.0,-1850.0,227.0,3
390,-13.0,-490.0,20.0,-746.0,-1016.0,396.0,-85.0,-1864.0,155.0,3
391,-15.0,-482.0,-5.0,-659.0,-1024.0,302.0,-94.0,-1825.0,76.0,3
392,-11.0,-462.0,-27.0,-545.0,-1004.0,144.0,-76.0,-1779.0,-5.0,3
393,-10.0,-448.0,-44.0,-449.0,-965.0,-7.0,-68.0,-1721.0,-63.0,3
394,-5.0,-430.0,-52.0,-407.0,-922.0,-161.0,-59.0,-1673.0,-99.0,3
395,-3.0,-411.0,-55.0,-449.0,-854.0,-315.0,-51.0,-1620.0,-113.0,3
396,8.0,-394.0,-54.0,-551.0,-742.0,-471.0,-26.0,-1559.0,-113.0,3
397,18.0,-378.0,-50.0,-681.0,-581.0,-616.0,4.0,-1478.0,-99.0,3
398,29.0,-362.0,-50.0,-808.0,-376.0,-737.0,42.0,-1414.0,-79.0,3
399,29.0,-349.0,-40.0,-926.0,-145.0,-837.0,45.0,-1368.0,-58.0,3
400,25.0,-336.0,-24.0,-1024.0,78.0,-903.0,45.0,-1303.0,4.0,3
401,26.0,-333.0,-14.0,-1079.0,262.0,-921.0,72.0,-1289.0,34.0,3
402,38.0,-333.0,-2.0,-1084.0,392.0,-901.0,116.0,-1275.0,86.0,3
403,40.0,-328.0,1.0,-1020.0,466.0,-880.0,129.0,-1269.0,95.0,3
404,46.0,-331.0,1.0,-910.0,492.0,-863.0,152.0,-1271.0,91.0,3
405,55.0,-334.0,1.0,-807.0,464.0,-821.0,195.0,-1281.0,91.0,3
406,59.0,-330.0,10.0,-725.0,406.0,-782.0,209.0,-1270.0,125.0,3
407,53.0,-330.0,10.0,-652.0,314.0,-725.0,201.0,-1276.0,138.0,3
408,57.0,-333.0,14.0,-596.0,211.0,-624.0,214.0,-1299.0,138.0,3
409,60.0,-339.0,13.0,-580.0,91.0,-481.0,232.0,-1332.0,139.0,3
410,70.0,-345.0,15.0,-581.0,-12.0,-316.0,255.0,-1344.0,149.0,3
411,78.0,-349.0,19.0,-587.0,-71.0,-170.0,281.0,-1360.0,158.0,3
412,81.0,-354.0,22.0,-595.0,-73.0,-44.0,284.0,-1370.0,178.0,3
413,82.0,-351.0,26.0,-597.0,-48.0,71.0,288.0,-1372.0,191.0,3
414,90.0,-346.0,32.0,-573.0,-3.0,162.0,297.0,-1342.0,220.0,3
415,96.0,-337.0,38.0,-528.0,73.0,218.0,313.0,-1292.0,237.0,3
416,92.0,-326.0,37.0,-474.0,175.0,240.0,304.0,-1260.0,254.0,3
417,89.0,-318.0,46.0,-412.0,296.0,243.0,283.0,-1207.0,280.0,3
418,77.0,-309.0,50.0,-343.0,433.0,235.0,258.0,-1183.0,290.0,3
419,69.0,-304.0,53.0,-289.0,568.0,221.0,237.0,-1173.0,298.0,3
420,58.0,-302.0,59.0,-245.0,683.0,198.0,208.0,-1155.0,320.0,3
421,51.0,-294.0,59.0,-182.0,777.0,169.0,164.0,-1138.0,307.0,3
422,43.0,-287.0,50.0,-79.0,829.0,155.0,145.0,-1105.0,285.0,3
423,37.0,-275.0,35.0,25.0,864.0,145.0,121.0,-1067.0,243.0,3
424,33.0,-261.0,25.0,148.0,882.0,138.0,106.0,-1012.0,185.0,3
425,30.0,-245.0,7.0,275.0,884.0,132.0,86.0,-934.0,127.0,3
426,19.0,-216.0,-6.0,400.0,874.0,126.0,64.0,-835.0,78.0,3
427,14.0,-182.0,-17.0,522.0,859.0,130.0,40.0,-716.0,5.0,3
428,6.0,-146.0,-39.0,621.0,834.0,143.0,18.0,-563.0,-63.0,3
429,5.0,-116.0,-57.0,669.0,804.0,159.0,16.0,-455.0,-134.0,3
430,0.0,-84.0,-75.0,656.0,762.0,167.0,5.0,-361.0,-191.0,3
431,-3.0,-61.0,-82.0,590.0,710.0,169.0,-13.0,-273.0,-248.0,3
432,-10.0,-30.0,-95.0,489.0,651.0,171.0,-37.0,-160.0,-269.0,3
433,-16.0,-9.0,-103.0,381.0,586.0,187.0,-61.0,-83.0,-322.0,3
434,-22.0,5.0,-107.0,262.0,507.0,212.0,-84.0,1.0,-335.0,3
435,-27.0,18.0,-112.0,142.0,414.0,280.0,-106.0,51.0,-377.0,3
436,-28.0,25.0,-118.0,-3.0,310.0,343.0,-104.0,73.0,-384.0,3
437,-27.0,33.0,-115.0,-106.0,233.0,386.0,-115.0,101.0,-378.0,3
438,-28.0,34.0,-111.0,-174.0,172.0,406.0,-116.0,119.0,-366.0,3
439,-30.0,29.0,-101.0,-214.0,125.0,406.0,-127.0,98.0,-343.0,3
440,-35.0,28.0,-96.0,-220.0,100.0,394.0,-139.0,106.0,-295.0,3
441,-41.0,17.0,-85.0,-215.0,100.0,391.0,-167.0,71.0,-266.0,3
442,-47.0,-4.0,-74.0,-219.0,117.0,387.0,-187.0,-20.0,-218.0,3
443,-52.0,-14.0,-55.0,-211.0,142.0,374.0,-223.0,-47.0,-129.0,3
444,-58.0,-30.0,-49.0,-131.0,172.0,359.0,-241.0,-111.0,-115.0,3
445,-59.0,-45.0,-61.0,6.0,212.0,348.0,-253.0,-152.0,-154.0,3
446,-62.0,-45.0,-90.0,190.0,269.0,341.0,-254.0,-170.0,-263.0,3
447,-53.0,-50.0,-131.0,401.0,341.0,346.0,-239.0,-179.0,-429.0,3
448,-46.0,-56.0,-177.0,589.0,431.0,342.0,-218.0,-208.0,-607.0,3
449,-38.0,-72.0,-224.0,756.0,544.0,323.0,-193.0,-271.0,-776.0,3
450,-37.0,-97.0,-234.0,993.0,690.0,305.0,-169.0,-329.0,-855.0,3
451,-49.0,-125.0,-227.0,1299.0,788.0,269.0,-205.0,-421.0,-840.0,3
452,-61.0,-150.0,-201.0,1695.0,831.0,221.0,-249.0,-528.0,-725.0,3
453,-62.0,-171.0,-157.0,2134.0,824.0,155.0,-257.0,-606.0,-552.0,3
454,-44.0,-181.0,-112.0,2568.0,792.0,77.0,-196.0,-651.0,-372.0,3
455,-11.0,-180.0,-70.0,2924.0,749.0,-30.0,-68.0,-676.0,-167.0,3
456,22.0,-186.0,-61.0,3094.0,677.0,-181.0,94.0,-785.0,-151.0,3
457,42.0,-186.0,-72.0,2914.0,564.0,-386.0,159.0,-827.0,-205.0,3
458,52.0,-185.0,-106.0,2348.0,443.0,-594.0,188.0,-868.0,-329.0,3
459,57.0,-222.0,-125.0,1505.0,382.0,-785.0,199.0,-969.0,-417.0,3
460,30.0,-259.0,-147.0,649.0,413.0,-977.0,85.0,-1094.0,-493.0,3
461,-5.0,-272.0,-180.0,-51.0,552.0,-1110.0,-88.0,-1148.0,-630.0,3
462,-31.0,-287.0,-232.0,-668.0,755.0,-1150.0,-177.0,-1249.0,-839.0,3
463,-52.0,-349.0,-276.0,-1397.0,905.0,-1167.0,-236.0,-1499.0,-1031.0,3
464,-63.0,-454.0,-300.0,-2465.0,931.0,-1283.0,-281.0,-1867.0,-1119.0,3
465,-58.0,-568.0,-288.0,-3337.0,910.0,-1441.0,-288.0,-2242.0,-1075.0,3
466,-13.0,-682.0,-213.0,-3979.0,947.0,-1487.0,-156.0,-2589.0,-816.0,3
467,35.0,-786.0,-104.0,-4203.0,1038.0,-1368.0,34.0,-2912.0,-404.0,3
468,57.0,-860.0,6.0,-3916.0,1121.0,-1147.0,163.0,-3150.0,19.0,3
469,62.0,-878.0,68.0,-3158.0,1104.0,-915.0,215.0,-3215.0,349.0,3
470,63.0,-850.0,101.0,-2096.0,957.0,-693.0,228.0,-3085.0,483.0,3
471,56.0,-787.0,105.0,-947.0,725.0,-495.0,211.0,-2838.0,495.0,3
472,49.0,-692.0,100.0,107.0,515.0,-326.0,151.0,-2518.0,479.0,3
473,32.0,-593.0,83.0,980.0,374.0,-139.0,96.0,-2193.0,419.0,3
474,18.0,-494.0,70.0,1635.0,298.0,70.0,44.0,-1868.0,367.0,3
475,-3.0,-400.0,60.0,2092.0,245.0,267.0,-30.0,-1548.0,319.0,3
476,-29.0,-319.0,40.0,2385.0,188.0,427.0,-120.0,-1257.0,257.0,3
477,-58.0,-246.0,19.0,2500.0,114.0,563.0,-206.0,-1012.0,185.0,3
478,-63.0,-193.0,3.0,2388.0,-11.0,661.0,-246.0,-817.0,103.0,3
479,-68.0,-157.0,-21.0,2120.0,-140.0,734.0,-257.0,-699.0,21.0,3
480,-68.0,-146.0,-32.0,1740.0,-270.0,786.0,-262.0,-635.0,-39.0,3
481,-67.0,-142.0,-48.0,1293.0,-367.0,831.0,-272.0,-631.0,-95.0,3
482,-69.0,-153.0,-59.0,806.0,-405.0,873.0,-282.0,-661.0,-145.0,3
483,-68.0,-169.0,-65.0,293.0,-381.0,908.0,-289.0,-739.0,-163.0,3
484,-73.0,-197.0,-58.0,-205.0,-313.0,926.0,-312.0,-828.0,-138.0,3
485,-75.0,-226.0,-41.0,-643.0,-227.0,925.0,-319.0,-911.0,-82.0,3
486,-76.0,-249.0,-28.0,-991.0,-138.0,915.0,-334.0,-995.0,-20.0,3
487,-75.0,-269.0,-16.0,-1240.0,-48.0,907.0,-328.0,-1062.0,40.0,3
488,-72.0,-290.0,8.0,-1388.0,42.0,910.0,-303.0,-1124.0,98.0,3
489,-70.0,-307.0,17.0,-1443.0,135.0,916.0,-295.0,-1164.0,164.0,3
490,-68.0,-318.0,40.0,-1414.0,214.0,919.0,-276.0,-1212.0,238.0,3
491,-68.0,-334.0,62.0,-1315.0,255.0,900.0,-278.0,-1256.0,317.0,3
492,-72.0,-350.0,75.0,-1164.0,236.0,864.0,-287.0,-1318.0,377.0,3
493,-73.0,-368.0,82.0,-928.0,165.0,816.0,-290.0,-1384.0,417.0,3
494,-73.0,-378.0,90.0,-706.0,59.0,757.0,-289.0,-1410.0,447.0,3
495,-68.0,-380.0,89.0,-474.0,-56.0,686.0,-279.0,-1436.0,448.0,3
496,-63.0,-382.0,92.0,-259.0,-164.0,622.0,-255.0,-1441.0,443.0,3
497,-51.0,-374.0,85.0,-66.0,-264.0,564.0,-223.0,-1411.0,426.0,3
498,-44.0,-368.0,83.0,111.0,-352.0,506.0,-173.0,-1392.0,424.0,3
499,-30.0,-357.0,84.0,279.0,-429.0,447.0,-133.0,-1342.0,410.0,3
500,-16.0,-340.0,75.0,439.0,-494.0,392.0,-91.0,-1280.0,392.0,3
501,-7.0,-323.0,71.0,583.0,-553.0,347.0,-36.0,-1224.0,375.0,3
502,10.0,-301.0,65.0,711.0,-592.0,312.0,9.0,-1161.0,342.0,3
503,22.0,-279.0,48.0,815.0,-611.0,283.0,59.0,-1084.0,285.0,3
504,33.0,-252.0,27.0,886.0,-607.0,259.0,98.0,-995.0,216.0,3
505,39.0,-222.0,10.0,923.0,-578.0,232.0,124.0,-894.0,149.0,3
506,43.0,-192.0,-12.0,922.0,-518.0,196.0,133.0,-789.0,79.0,3
507,47.0,-170.0,-25.0,876.0,-458.0,164.0,152.0,-674.0,5.0,3
508,50.0,-140.0,-45.0,796.0,-398.0,133.0,169.0,-577.0,-86.0,3
509,48.0,-111.0,-61.0,666.0,-336.0,82.0,162.0,-473.0,-158.0,3
510,47.0,-78.0,-76.0,502.0,-274.0,27.0,158.0,-367.0,-216.0,3
511,52.0,-57.0,-90.0,319.0,-221.0,-31.0,177.0,-240.0,-268.0,3
512,54.0,-29.0,-98.0,138.0,-174.0,-106.0,196.0,-170.0,-311.0,3
513,52.0,-18.0,-102.0,-34.0,-135.0,-198.0,194.0,-102.0,-326.0,3
514,52.0,-4.0,-101.0,-193.0,-104.0,-282.0,192.0,-52.0,-334.0,3
515,49.0,1.0,-101.0,-328.0,-77.0,-360.0,182.0,-24.0,-310.0,3
516,48.0,2.0,-93.0,-420.0,-57.0,-419.0,171.0,0.0,-290.0,3
517,47.0,0.0,-87.0,-467.0,-36.0,-462.0,182.0,-20.0,-250.0,3
518,51.0,-7.0,-72.0,-472.0,-12.0,-507.0,182.0,-32.0,-195.0,3
519,48.0,-12.0,-55.0,-434.0,23.0,-554.0,169.0,-49.0,-126.0,3
520,54.0,-22.0,-42.0,-346.0,81.0,-589.0,193.0,-72.0,-62.0,3
521,62.0,-40.0,-30.0,-181.0,138.0,-620.0,225.0,-125.0,-19.0,3
522,69.0,-50.0,-18.0,4.0,201.0,-658.0,248.0,-165.0,11.0,3
523,71.0,-61.0,-32.0,235.0,250.0,-706.0,267.0,-203.0,-5.0,3
524,72.0,-71.0,-55.0,499.0,273.0,-755.0,264.0,-226.0,-92.0,3
525,57.0,-71.0,-83.0,787.0,260.0,-811.0,228.0,-248.0,-265.0,3
526,32.0,-69.0,-132.0,1065.0,201.0,-872.0,102.0,-252.0,-470.0,3
527,-2.0,-71.0,-195.0,1298.0,87.0,-931.0,-16.0,-271.0,-699.0,3
528,-37.0,-84.0,-233.0,1517.0,-56.0,-958.0,-154.0,-313.0,-846.0,3
529,-70.0,-112.0,-240.0,1799.0,-159.0,-960.0,-283.0,-378.0,-880.0,3
530,-97.0,-137.0,-223.0,2186.0,-202.0,-938.0,-388.0,-478.0,-818.0,3
531,-93.0,-154.0,-197.0,2627.0,-243.0,-887.0,-382.0,-560.0,-713.0,3
532,-67.0,-157.0,-175.0,3006.0,-306.0,-787.0,-292.0,-613.0,-622.0,3
533,-27.0,-154.0,-140.0,3223.0,-335.0,-655.0,-164.0,-612.0,-492.0,3
534,-13.0,-142.0,-110.0,3277.0,-258.0,-523.0,-121.0,-587.0,-344.0,3
535,-36.0,-135.0,-91.0,3092.0,30.0,-484.0,-206.0,-621.0,-279.0,3
536,-97.0,-139.0,-102.0,2590.0,352.0,-410.0,-418.0,-686.0,-315.0,3
537,-146.0,-156.0,-116.0,1722.0,665.0,-186.0,-612.0,-778.0,-357.0,3
538,-171.0,-179.0,-145.0,699.0,914.0,177.0,-700.0,-842.0,-508.0,3
539,-178.0,-182.0,-161.0,-317.0,1050.0,525.0,-708.0,-838.0,-549.0,3
540,-184.0,-184.0,-132.0,-1213.0,1061.0,735.0,-723.0,-810.0,-437.0,3
541,-164.0,-212.0,-82.0,-1934.0,1013.0,862.0,-645.0,-880.0,-258.0,3
542,-116.0,-285.0,-81.0,-2486.0,916.0,1066.0,-461.0,-1137.0,-229.0,3
543,-66.0,-417.0,-122.0,-2947.0,672.0,1382.0,-248.0,-1608.0,-382.0,3
544,-31.0,-523.0,-161.0,-3371.0,287.0,1714.0,-104.0,-2118.0,-546.0,3
545,-4.0,-647.0,-165.0,-3748.0,-80.0,1946.0,-27.0,-2537.0,-561.0,3
546,23.0,-751.0,-111.0,-4013.0,-293.0,2054.0,44.0,-2850.0,-355.0,3
547,39.0,-828.0,-17.0,-3997.0,-351.0,2033.0,100.0,-3082.0,-5.0,3
548,42.0,-889.0,72.0,-3551.0,-345.0,1838.0,123.0,-3228.0,344.0,3
549,3.0,-903.0,135.0,-2650.0,-375.0,1547.0,15.0,-3285.0,590.0,3
550,-60.0,-873.0,147.0,-1162.0,-435.0,1209.0,-223.0,-3180.0,698.0,3
551,-86.0,-805.0,125.0,133.0,-477.0,845.0,-366.0,-2995.0,630.0,3
552,-81.0,-705.0,87.0,1211.0,-487.0,478.0,-384.0,-2710.0,465.0,3
553,-65.0,-621.0,57.0,1940.0,-475.0,139.0,-280.0,-2298.0,273.0,3
554,-20.0,-517.0,-3.0,2261.0,-421.0,-164.0,-113.0,-1981.0,75.0,3
555,27.0,-425.0,-49.0,2181.0,-310.0,-460.0,63.0,-1695.0,-95.0,3
556,61.0,-351.0,-69.0,1804.0,-142.0,-756.0,190.0,-1433.0,-165.0,3
557,83.0,-289.0,-67.0,1285.0,44.0,-1039.0,265.0,-1199.0,-176.0,3
558,75.0,-239.0,-61.0,753.0,203.0,-1268.0,253.0,-999.0,-145.0,3
559,71.0,-213.0,-57.0,287.0,326.0,-1391.0,242.0,-898.0,-145.0,3
560,76.0,-204.0,-52.0,-104.0,421.0,-1416.0,252.0,-848.0,-121.0,3
561,83.0,-209.0,-32.0,-416.0,509.0,-1393.0,278.0,-847.0,-59.0,3
562,85.0,-216.0,-21.0,-640.0,589.0,-1342.0,298.0,-859.0,11.0,3
563,74.0,-223.0,-1.0,-784.0,655.0,-1300.0,269.0,-881.0,86.0,3
564,61.0,-231.0,10.0,-888.0,687.0,-1228.0,221.0,-910.0,114.0,3
565,63.0,-248.0,4.0,-970.0,674.0,-1146.0,225.0,-964.0,100.0,3
566,83.0,-271.0,-3.0,-1112.0,633.0,-1019.0,273.0,-1072.0,78.0,3
567,102.0,-297.0,9.0,-1288.0,626.0,-892.0,363.0,-1174.0,123.0,3
568,84.0,-318.0,15.0,-1422.0,609.0,-778.0,323.0,-1248.0,155.0,3
569,73.0,-335.0,25.0,-1479.0,533.0,-633.0,284.0,-1293.0,183.0,3
570,75.0,-354.0,35.0,-1447.0,410.0,-453.0,282.0,-1348.0,219.0,3
571,75.0,-360.0,40.0,-1318.0,283.0,-288.0,274.0,-1359.0,256.0,3
572,71.0,-362.0,49.0,-1090.0,188.0,-151.0,245.0,-1356.0,279.0,3
573,72.0,-361.0,52.0,-793.0,148.0,-54.0,245.0,-1349.0,287.0,3
574,72.0,-352.0,45.0,-476.0,167.0,6.0,242.0,-1327.0,276.0,3
575,62.0,-338.0,47.0,-171.0,242.0,17.0,212.0,-1280.0,272.0,3
576,57.0,-337.0,40.0,111.0,368.0,13.0,178.0,-1270.0,259.0,3
577,37.0,-326.0,53.0,359.0,546.0,-16.0,111.0,-1229.0,279.0,3
578,7.0,-311.0,67.0,657.0,683.0,-39.0,9.0,-1166.0,342.0,3
579,-15.0,-291.0,72.0,930.0,800.0,-75.0,-62.0,-1123.0,373.0,3
580,-39.0,-266.0,78.0,1189.0,884.0,-121.0,-171.0,-1008.0,395.0,3
581,-62.0,-237.0,69.0,1402.0,926.0,-144.0,-251.0,-878.0,348.0,3
582,-63.0,-201.0,46.0,1512.0,920.0,-168.0,-248.0,-775.0,266.0,3
583,-66.0,-167.0,14.0,1496.0,865.0,-210.0,-253.0,-676.0,140.0,3
584,-71.0,-140.0,-22.0,1327.0,772.0,-225.0,-260.0,-608.0,3.0,3
585,-67.0,-128.0,-52.0,1029.0,665.0,-183.0,-259.0,-554.0,-110.0,3
586,-60.0,-114.0,-49.0,683.0,555.0,-70.0,-235.0,-498.0,-121.0,3
587,-46.0,-94.0,-55.0,408.0,459.0,60.0,-194.0,-402.0,-120.0,3
588,-31.0,-91.0,-70.0,239.0,390.0,164.0,-148.0,-377.0,-193.0,3
589,-32.0,-80.0,-76.0,102.0,342.0,214.0,-128.0,-314.0,-210.0,3
590,-37.0,-52.0,-70.0,41.0,307.0,258.0,-138.0,-211.0,-191.0,3
591,-36.0,-30.0,-79.0,83.0,275.0,310.0,-139.0,-116.0,-234.0,3
592,-38.0,-7.0,-96.0,147.0,259.0,337.0,-151.0,-64.0,-303.0,3
593,-45.0,12.0,-106.0,153.0,239.0,343.0,-171.0,16.0,-341.0,3
594,-49.0,30.0,-108.0,136.0,212.0,362.0,-193.0,91.0,-346.0,3
595,-44.0,39.0,-107.0,91.0,176.0,374.0,-173.0,122.0,-352.0,3
596,-47.0,47.0,-106.0,19.0,139.0,362.0,-195.0,157.0,-329.0,3
597,-45.0,33.0,-85.0,-67.0,110.0,345.0,-187.0,124.0,-285.0,3
598,-49.0,23.0,-75.0,-160.0,79.0,330.0,-191.0,56.0,-201.0,3
599,-47.0,3.0,-46.0,-215.0,40.0,317.0,-185.0,4.0,-94.0,3
600,-54.0,-9.0,-22.0,-170.0,3.0,311.0,-215.0,-32.0,1.0,3
601,-57.0,-21.0,-9.0,-18.0,-27.0,313.0,-235.0,-50.0,56.0,3
602,-62.0,-33.0,-17.0,195.0,-52.0,324.0,-247.0,-97.0,28.0,3
603,-54.0,-43.0,-38.0,425.0,-73.0,334.0,-224.0,-147.0,-48.0,3
604,-30.0,-54.0,-86.0,655.0,-80.0,343.0,-141.0,-183.0,-213.0,3
605,-11.0,-60.0,-139.0,858.0,-50.0,336.0,-69.0,-220.0,-424.0,3
606,-1.0,-68.0,-189.0,1064.0,16.0,319.0,-40.0,-243.0,-642.0,3
607,9.0,-84.0,-230.0,1260.0,98.0,288.0,3.0,-311.0,-839.0,3
608,17.0,-104.0,-246.0,1508.0,173.0,254.0,30.0,-373.0,-896.0,3
609,10.0,-131.0,-234.0,1823.0,251.0,201.0,10.0,-486.0,-847.0,3
610,4.0,-157.0,-205.0,2165.0,352.0,114.0,-21.0,-574.0,-722.0,3
611,4.0,-170.0,-152.0,2510.0,468.0,-8.0,-15.0,-605.0,-526.0,3
612,13.0,-173.0,-104.0,2875.0,547.0,-112.0,46.0,-630.0,-325.0,3
613,30.0,-179.0,-67.0,3206.0,536.0,-211.0,128.0,-688.0,-195.0,3
614,63.0,-197.0,-97.0,3285.0,399.0,-374.0,252.0,-865.0,-279.0,3
615,90.0,-219.0,-137.0,2806.0,152.0,-652.0,343.0,-1033.0,-451.0,3
616,92.0,-228.0,-169.0,1737.0,-84.0,-971.0,328.0,-1094.0,-578.0,3
617,89.0,-233.0,-162.0,394.0,-182.0,-1241.0,289.0,-1086.0,-557.0,3
618,69.0,-239.0,-153.0,-828.0,-114.0,-1386.0,218.0,-1065.0,-523.0,3
619,47.0,-259.0,-202.0,-1815.0,90.0,-1450.0,128.0,-1146.0,-697.0,3
620,38.0,-320.0,-278.0,-2997.0,254.0,-1512.0,101.0,-1389.0,-999.0,3
621,17.0,-431.0,-362.0,-4112.0,404.0,-1673.0,12.0,-1750.0,-1270.0,3
622,-38.0,-573.0,-396.0,-5192.0,634.0,-1878.0,-195.0,-2337.0,-1466.0,3
623,-85.0,-726.0,-331.0,-6006.0,896.0,-1997.0,-421.0,-2808.0,-1238.0,3
624,-113.0,-899.0,-196.0,-6286.0,1094.0,-1895.0,-523.0,-3326.0,-731.0,3
625,-99.0,-1063.0,-28.0,-5895.0,1191.0,-1573.0,-465.0,-3842.0,-85.0,3
626,-64.0,-1145.0,71.0,-4815.0,1188.0,-1177.0,-268.0,-4160.0,414.0,3
627,-13.0,-1172.0,157.0,-3168.0,1032.0,-848.0,-65.0,-4201.0,711.0,3
628,1.0,-1090.0,182.0,-1224.0,741.0,-619.0,5.0,-3911.0,821.0,3
629,6.0,-935.0,162.0,701.0,415.0,-442.0,-4.0,-3399.0,751.0,3
630,-5.0,-747.0,126.0,2323.0,165.0,-244.0,-47.0,-2804.0,609.0,3
631,-9.0,-567.0,82.0,3438.0,43.0,-21.0,-71.0,-2220.0,445.0,3
632,-20.0,-406.0,53.0,4006.0,9.0,195.0,-107.0,-1673.0,327.0,3
633,-42.0,-270.0,35.0,4118.0,-4.0,400.0,-158.0,-1198.0,248.0,3
634,-44.0,-170.0,30.0,3842.0,-53.0,522.0,-186.0,-815.0,217.0,3
635,-49.0,-113.0,34.0,3416.0,-135.0,597.0,-185.0,-523.0,216.0,3
636,-52.0,-61.0,24.0,2909.0,-261.0,664.0,-191.0,-294.0,195.0,3
637,-57.0,-31.0,17.0,2360.0,-417.0,727.0,-210.0,-202.0,146.0,3
638,-57.0,-22.0,-2.0,1766.0,-570.0,815.0,-217.0,-185.0,76.0,3
639,-52.0,-28.0,-29.0,1119.0,-689.0,914.0,-206.0,-216.0,-13.0,3
640,-41.0,-47.0,-46.0,431.0,-736.0,1014.0,-174.0,-288.0,-80.0,3
641,-27.0,-71.0,-48.0,-252.0,-702.0,1094.0,-136.0,-360.0,-101.0,3
642,-21.0,-95.0,-40.0,-863.0,-611.0,1167.0,-111.0,-429.0,-62.0,3
643,-20.0,-119.0,-18.0,-1355.0,-497.0,1215.0,-105.0,-499.0,3.0,3
644,-14.0,-139.0,-4.0,-1707.0,-389.0,1249.0,-85.0,-572.0,85.0,3
645,-19.0,-163.0,20.0,-1913.0,-292.0,1268.0,-103.0,-644.0,166.0,3
646,-23.0,-184.0,37.0,-1975.0,-200.0,1286.0,-114.0,-711.0,241.0,3
647,-22.0,-215.0,60.0,-1935.0,-122.0,1257.0,-105.0,-810.0,301.0,3
648,-26.0,-238.0,75.0,-1825.0,-52.0,1176.0,-122.0,-876.0,386.0,3
649,-35.0,-256.0,98.0,-1600.0,-12.0,1075.0,-136.0,-929.0,468.0,3
650,-27.0,-267.0,113.0,-1342.0,9.0,994.0,-142.0,-984.0,546.0,3
651,-25.0,-280.0,119.0,-1026.0,28.0,923.0,-120.0,-1035.0,572.0,3
652,-24.0,-292.0,122.0,-680.0,52.0,868.0,-113.0,-1074.0,567.0,3
653,-14.0,-294.0,112.0,-341.0,76.0,818.0,-72.0,-1101.0,538.0,3
654,-11.0,-295.0,94.0,-42.0,80.0,772.0,-44.0,-1110.0,469.0,3
655,-4.0,-295.0,75.0,199.0,69.0,705.0,-35.0,-1117.0,395.0,3
656,-5.0,-287.0,62.0,376.0,39.0,627.0,-21.0,-1103.0,343.0,3
657,-3.0,-281.0,53.0,516.0,1.0,538.0,-13.0,-1083.0,297.0,3
658,-7.0,-267.0,39.0,624.0,-58.0,437.0,-18.0,-1039.0,262.0,3
659,-8.0,-247.0,29.0,697.0,-140.0,329.0,-39.0,-962.0,230.0,3
660,-11.0,-229.0,16.0,732.0,-224.0,233.0,-37.0,-907.0,173.0,3
661,-6.0,-213.0,2.0,718.0,-300.0,131.0,-27.0,-848.0,123.0,3
662,1.0,-200.0,-1.0,669.0,-378.0,18.0,-8.0,-794.0,82.0,3
663,5.0,-183.0,-14.0,575.0,-433.0,-71.0,6.0,-736.0,32.0,3
664,15.0,-169.0,-27.0,485.0,-461.0,-159.0,31.0,-668.0,-20.0,3
665,20.0,-152.0,-38.0,391.0,-465.0,-261.0,67.0,-617.0,-55.0,3
666,27.0,-142.0,-41.0,300.0,-452.0,-365.0,89.0,-565.0,-86.0,3
667,34.0,-132.0,-51.0,214.0,-421.0,-478.0,111.0,-537.0,-109.0,3
668,37.0,-128.0,-56.0,136.0,-369.0,-578.0,115.0,-512.0,-125.0,3
669,40.0,-121.0,-59.0,71.0,-301.0,-671.0,130.0,-484.0,-130.0,3
670,38.0,-116.0,-60.0,33.0,-217.0,-754.0,125.0,-461.0,-142.0,3
671,40.0,-110.0,-60.0,26.0,-122.0,-817.0,127.0,-422.0,-152.0,3
672,41.0,-98.0,-64.0,44.0,-24.0,-853.0,126.0,-389.0,-172.0,3
673,44.0,-89.0,-70.0,81.0,82.0,-889.0,137.0,-370.0,-192.0,3
674,45.0,-80.0,-73.0,122.0,186.0,-918.0,152.0,-321.0,-196.0,3
675,42.0,-67.0,-67.0,172.0,273.0,-947.0,151.0,-274.0,-196.0,3
676,39.0,-49.0,-73.0,243.0,352.0,-960.0,143.0,-218.0,-195.0,3
677,36.0,-44.0,-75.0,346.0,388.0,-966.0,141.0,-168.0,-202.0,3
678,24.0,-27.0,-85.0,436.0,389.0,-972.0,108.0,-117.0,-247.0,3
679,10.0,-23.0,-95.0,514.0,348.0,-976.0,49.0,-96.0,-298.0,3
680,-24.0,-17.0,-118.0,570.0,251.0,-984.0,-67.0,-84.0,-363.0,3
681,-45.0,-11.0,-135.0,581.0,91.0,-990.0,-166.0,-65.0,-468.0,3
682,-65.0,-19.0,-174.0,569.0,-122.0,-971.0,-244.0,-97.0,-619.0,3
683,-86.0,-36.0,-221.0,579.0,-318.0,-953.0,-347.0,-145.0,-787.0,3
684,-110.0,-67.0,-237.0,677.0,-426.0,-911.0,-451.0,-225.0,-867.0,3
685,-131.0,-95.0,-217.0,934.0,-467.0,-849.0,-492.0,-328.0,-813.0,3
686,-122.0,-126.0,-176.0,1347.0,-551.0,-736.0,-472.0,-431.0,-660.0,3
687,-99.0,-137.0,-134.0,1835.0,-690.0,-575.0,-400.0,-485.0,-485.0,3
688,-80.0,-139.0,-98.0,2285.0,-791.0,-403.0,-350.0,-519.0,-320.0,3
689,-86.0,-142.0,-83.0,2558.0,-782.0,-261.0,-363.0,-590.0,-241.0,3
690,-107.0,-143.0,-98.0,2474.0,-615.0,-71.0,-470.0,-678.0,-271.0,3
691,-136.0,-142.0,-114.0,1768.0,-362.0,175.0,-586.0,-721.0,-358.0,3
692,-130.0,-149.0,-127.0,808.0,-43.0,520.0,-589.0,-751.0,-413.0,3
693,-110.0,-153.0,-122.0,-248.0,266.0,866.0,-459.0,-735.0,-388.0,3
694,-97.0,-165.0,-70.0,-1216.0,490.0,1113.0,-387.0,-743.0,-210.0,3
695,-83.0,-199.0,0.0,-1960.0,584.0,1244.0,-344.0,-831.0,61.0,3
696,-59.0,-264.0,27.0,-2433.0,522.0,1404.0,-208.0,-1037.0,200.0,3
697,-32.0,-363.0,-10.0,-2690.0,266.0,1630.0,-96.0,-1390.0,72.0,3
698,-11.0,-484.0,-79.0,-2855.0,-135.0,1888.0,-27.0,-1816.0,-185.0,3
699,14.0,-563.0,-121.0,-3024.0,-485.0,2088.0,42.0,-2231.0,-385.0,3
700,69.0,-666.0,-128.0,-3215.0,-646.0,2214.0,216.0,-2598.0,-415.0,3
701,125.0,-763.0,-71.0,-3359.0,-618.0,2238.0,412.0,-2907.0,-208.0,3
702,147.0,-847.0,9.0,-3256.0,-507.0,2129.0,513.0,-3149.0,103.0,3
703,118.0,-894.0,74.0,-2765.0,-448.0,1903.0,437.0,-3269.0,366.0,3
704,52.0,-899.0,98.0,-1893.0,-477.0,1582.0,207.0,-3280.0,473.0,3
705,-19.0,-867.0,74.0,-579.0,-560.0,1286.0,-64.0,-3203.0,422.0,3
706,-58.0,-798.0,45.0,471.0,-603.0,935.0,-247.0,-2976.0,269.0,3
707,-63.0,-706.0,8.0,1249.0,-587.0,550.0,-304.0,-2688.0,155.0,3
708,-43.0,-637.0,-13.0,1666.0,-508.0,192.0,-213.0,-2395.0,38.0,3
709,-5.0,-540.0,-30.0,1712.0,-380.0,-173.0,-65.0,-2093.0,-33.0,3
710,12.0,-459.0,-57.0,1483.0,-229.0,-588.0,-13.0,-1825.0,-125.0,3
711,6.0,-404.0,-53.0,1050.0,-79.0,-961.0,-23.0,-1609.0,-116.0,3
712,22.0,-341.0,-34.0,575.0,67.0,-1241.0,45.0,-1375.0,-44.0,3
713,35.0,-294.0,-27.0,183.0,179.0,-1482.0,99.0,-1209.0,-24.0,3
714,52.0,-253.0,-24.0,-165.0,277.0,-1667.0,162.0,-1046.0,-2.0,3
715,68.0,-232.0,-14.0,-493.0,361.0,-1780.0,228.0,-955.0,34.0,3
716,79.0,-218.0,4.0,-801.0,461.0,-1814.0,255.0,-907.0,97.0,3
717,80.0,-219.0,13.0,-1085.0,591.0,-1778.0,276.0,-897.0,142.0,3
718,76.0,-229.0,30.0,-1333.0,718.0,-1690.0,279.0,-917.0,204.0,3
719,71.0,-248.0,54.0,-1544.0,833.0,-1559.0,253.0,-962.0,282.0,3
720,71.0,-273.0,66.0,-1708.0,857.0,-1368.0,257.0,-1070.0,335.0,3
721,67.0,-290.0,65.0,-1738.0,797.0,-1190.0,257.0,-1129.0,344.0,3
722,58.0,-304.0,55.0,-1684.0,665.0,-1016.0,248.0,-1167.0,297.0,3
723,54.0,-314.0,46.0,-1564.0,486.0,-854.0,219.0,-1183.0,255.0,3
724,52.0,-316.0,37.0,-1399.0,313.0,-672.0,192.0,-1203.0,241.0,3
725,55.0,-316.0,45.0,-1209.0,195.0,-483.0,194.0,-1192.0,258.0,3
726,55.0,-311.0,46.0,-985.0,134.0,-311.0,194.0,-1175.0,282.0,3
727,58.0,-307.0,61.0,-747.0,132.0,-176.0,198.0,-1153.0,323.0,3
728,52.0,-296.0,74.0,-509.0,172.0,-72.0,180.0,-1111.0,378.0,3
729,49.0,-299.0,75.0,-244.0,242.0,-18.0,160.0,-1105.0,403.0,3
730,48.0,-296.0,79.0,53.0,316.0,-5.0,153.0,-1108.0,404.0,3
731,29.0,-288.0,86.0,364.0,387.0,-20.0,94.0,-1075.0,427.0,3
732,19.0,-274.0,86.0,712.0,444.0,-27.0,63.0,-1047.0,444.0,3
733,8.0,-254.0,79.0,1068.0,489.0,-33.0,25.0,-961.0,408.0,3
734,-11.0,-215.0,60.0,1430.0,504.0,-27.0,-59.0,-834.0,329.0,3
735,-21.0,-192.0,31.0,1616.0,500.0,-3.0,-103.0,-722.0,199.0,3
736,-30.0,-157.0,-11.0,1625.0,466.0,22.0,-123.0,-641.0,40.0,3
737,-38.0,-121.0,-41.0,1436.0,393.0,44.0,-161.0,-523.0,-84.0,3
738,-46.0,-104.0,-74.0,1098.0,301.0,129.0,-193.0,-476.0,-198.0,3
739,-38.0,-91.0,-89.0,653.0,218.0,289.0,-160.0,-439.0,-257.0,3
740,-19.0,-89.0,-86.0,190.0,166.0,473.0,-113.0,-405.0,-255.0,3
741,-19.0,-85.0,-78.0,-192.0,160.0,604.0,-98.0,-376.0,-229.0,3
742,-19.0,-78.0,-70.0,-445.0,184.0,691.0,-87.0,-343.0,-191.0,3
743,-23.0,-68.0,-62.0,-562.0,207.0,757.0,-99.0,-279.0,-166.0,3
744,-30.0,-53.0,-62.0,-568.0,213.0,813.0,-120.0,-194.0,-150.0,3
745,-35.0,-30.0,-63.0,-479.0,199.0,841.0,-137.0,-113.0,-171.0,3
746,-39.0,-14.0,-79.0,-345.0,176.0,849.0,-157.0,-64.0,-225.0,3
747,-37.0,-4.0,-83.0,-219.0,145.0,815.0,-144.0,-27.0,-263.0,3
748,-38.0,-1.0,-93.0,-99.0,124.0,760.0,-154.0,-7.0,-288.0,3
749,-39.0,-5.0,-94.0,-27.0,105.0,692.0,-161.0,-28.0,-291.0,3
750,-39.0,-8.0,-78.0,27.0,77.0,643.0,-160.0,-35.0,-238.0,3
751,-44.0,-14.0,-73.0,95.0,37.0,606.0,-170.0,-56.0,-200.0,3
752,-40.0,-19.0,-58.0,167.0,-3.0,583.0,-163.0,-64.0,-145.0,3
753,-35.0,-29.0,-48.0,260.0,-31.0,548.0,-160.0,-96.0,-104.0,3
754,-37.0,-32.0,-55.0,381.0,-48.0,513.0,-170.0,-111.0,-126.0,3
755,-40.0,-35.0,-73.0,512.0,-46.0,491.0,-180.0,-130.0,-209.0,3
756,-38.0,-39.0,-118.0,640.0,-26.0,494.0,-165.0,-149.0,-368.0,3
757,-30.0,-46.0,-166.0,754.0,13.0,483.0,-137.0,-174.0,-556.0,3
758,-17.0,-55.0,-201.0,878.0,63.0,472.0,-91.0,-199.0,-711.0,3
759,8.0,-71.0,-226.0,1065.0,117.0,448.0,-9.0,-247.0,-810.0,3
760,7.0,-88.0,-213.0,1321.0,168.0,416.0,11.0,-307.0,-790.0,3
761,2.0,-112.0,-201.0,1639.0,222.0,347.0,-10.0,-377.0,-733.0,3
762,-8.0,-132.0,-192.0,2022.0,272.0,256.0,-54.0,-479.0,-673.0,3
763,-11.0,-133.0,-169.0,2279.0,328.0,132.0,-59.0,-508.0,-579.0,3
764,2.0,-132.0,-144.0,2466.0,376.0,24.0,4.0,-514.0,-480.0,3
765,22.0,-127.0,-122.0,2534.0,379.0,-87.0,91.0,-531.0,-404.0,3
766,42.0,-126.0,-119.0,2379.0,313.0,-223.0,185.0,-585.0,-396.0,3
767,58.0,-132.0,-116.0,1892.0,181.0,-411.0,236.0,-646.0,-385.0,3
768,71.0,-142.0,-93.0,1103.0,33.0,-617.0,261.0,-685.0,-295.0,3
769,68.0,-196.0,-70.0,228.0,-82.0,-814.0,260.0,-835.0,-201.0,3
770,46.0,-249.0,-57.0,-534.0,-135.0,-1020.0,170.0,-1009.0,-123.0,3
771,0.0,-277.0,-76.0,-1128.0,-99.0,-1221.0,-7.0,-1126.0,-163.0,3
772,-23.0,-315.0,-128.0,-1685.0,35.0,-1372.0,-164.0,-1325.0,-390.0,3
773,-56.0,-405.0,-220.0,-2432.0,246.0,-1565.0,-279.0,-1697.0,-747.0,3
774,-109.0,-507.0,-297.0,-3443.0,506.0,-1805.0,-495.0,-2090.0,-1044.0,3
775,-182.0,-627.0,-309.0,-4580.0,867.0,-1959.0,-750.0,-2488.0,-1119.0,3
776,-211.0,-769.0,-224.0,-5671.0,1099.0,-1827.0,-908.0,-2999.0,-766.0,3
777,-167.0,-922.0,-87.0,-5905.0,1194.0,-1478.0,-684.0,-3452.0,-245.0,3
778,-65.0,-1058.0,31.0,-5362.0,1137.0,-1037.0,-301.0,-3840.0,189.0,3
779,20.0,-1103.0,91.0,-4129.0,962.0,-678.0,24.0,-3981.0,419.0,3
780,62.0,-1044.0,107.0,-2452.0,727.0,-421.0,207.0,-3801.0,501.0,3
781,54.0,-946.0,98.0,-672.0,492.0,-230.0,187.0,-3401.0,473.0,3
782,32.0,-797.0,74.0,883.0,289.0,6.0,98.0,-2922.0,385.0,3
783,16.0,-649.0,53.0,1990.0,124.0,292.0,50.0,-2469.0,281.0,3
784,2.0,-523.0,30.0,2594.0,-33.0,569.0,-4.0,-2044.0,202.0,3
785,-12.0,-403.0,15.0,2800.0,-205.0,774.0,-55.0,-1618.0,143.0,3
786,-23.0,-294.0,8.0,2741.0,-372.0,897.0,-95.0,-1227.0,117.0,3
787,-25.0,-201.0,11.0,2516.0,-494.0,925.0,-116.0,-895.0,129.0,3
788,-29.0,-136.0,15.0,2190.0,-562.0,909.0,-117.0,-645.0,147.0,3
789,-39.0,-101.0,21.0,1810.0,-604.0,883.0,-143.0,-452.0,172.0,3
790,-43.0,-85.0,17.0,1327.0,-651.0,888.0,-177.0,-394.0,169.0,3
791,-49.0,-84.0,11.0,906.0,-684.0,909.0,-208.0,-395.0,138.0,3
792,-53.0,-94.0,7.0,459.0,-688.0,939.0,-238.0,-441.0,113.0,3
793,-47.0,-117.0,-1.0,2.0,-655.0,957.0,-209.0,-515.0,90.0,3
794,-41.0,-141.0,0.0,-440.0,-587.0,969.0,-190.0,-599.0,86.0,3
795,-41.0,-169.0,5.0,-820.0,-488.0,966.0,-184.0,-688.0,94.0,3
796,-37.0,-195.0,9.0,-1112.0,-370.0,949.0,-180.0,-765.0,126.0,3
797,-37.0,-224.0,21.0,-1295.0,-247.0,921.0,-182.0,-856.0,177.0,3
798,-32.0,-250.0,42.0,-1382.0,-147.0,874.0,-161.0,-930.0,229.0,3
799,-30.0,-262.0,57.0,-1395.0,-82.0,773.0,-134.0,-1013.0,310.0,3
800,-25.0,-278.0,84.0,-1336.0,-53.0,662.0,-129.0,-1049.0,403.0,3
801,-18.0,-290.0,94.0,-1190.0,-43.0,569.0,-104.0,-1080.0,469.0,3
802,-19.0,-295.0,109.0,-969.0,-33.0,490.0,-97.0,-1099.0,505.0,3
803,-22.0,-299.0,107.0,-697.0,-17.0,398.0,-102.0,-1094.0,516.0,3
804,-24.0,-292.0,98.0,-332.0,2.0,355.0,-125.0,-1080.0,489.0,3
805,-25.0,-280.0,87.0,-30.0,-1.0,329.0,-109.0,-1052.0,440.0,3
806,-27.0,-267.0,71.0,238.0,-35.0,302.0,-112.0,-1022.0,370.0,3
807,-33.0,-257.0,54.0,446.0,-97.0,256.0,-137.0,-966.0,302.0,3
808,-39.0,-245.0,46.0,598.0,-180.0,208.0,-136.0,-929.0,249.0,3
809,-30.0,-235.0,26.0,702.0,-278.0,141.0,-115.0,-889.0,202.0,3
810,-21.0,-219.0,20.0,753.0,-377.0,62.0,-101.0,-844.0,165.0,3
811,-14.0,-199.0,10.0,759.0,-471.0,-19.0,-63.0,-782.0,130.0,3
812,-5.0,-176.0,5.0,743.0,-551.0,-89.0,-21.0,-708.0,101.0,3
813,5.0,-154.0,-12.0,699.0,-609.0,-157.0,9.0,-632.0,54.0,3
814,14.0,-129.0,-28.0,623.0,-646.0,-229.0,39.0,-539.0,-2.0,3
815,25.0,-103.0,-41.0,511.0,-647.0,-309.0,67.0,-450.0,-52.0,3
816,35.0,-79.0,-56.0,376.0,-608.0,-398.0,87.0,-356.0,-120.0,3
817,35.0,-68.0,-70.0,211.0,-531.0,-531.0,105.0,-275.0,-197.0,3
818,35.0,-50.0,-82.0,-4.0,-399.0,-627.0,109.0,-213.0,-235.0,3
819,37.0,-41.0,-92.0,-157.0,-268.0,-701.0,113.0,-162.0,-269.0,3
820,40.0,-28.0,-95.0,-265.0,-134.0,-744.0,128.0,-115.0,-278.0,3
821,43.0,-17.0,-94.0,-317.0,-23.0,-766.0,146.0,-78.0,-285.0,3
822,47.0,-14.0,-96.0,-324.0,63.0,-772.0,167.0,-69.0,-297.0,3
823,52.0,-19.0,-95.0,-298.0,136.0,-772.0,178.0,-65.0,-282.0,3
824,52.0,-19.0,-84.0,-240.0,191.0,-766.0,186.0,-69.0,-258.0,3
825,52.0,-19.0,-81.0,-151.0,229.0,-762.0,205.0,-73.0,-240.0,3
826,54.0,-22.0,-87.0,-38.0,248.0,-764.0,207.0,-88.0,-249.0,3
827,53.0,-30.0,-96.0,84.0,258.0,-794.0,205.0,-111.0,-292.0,3
828,51.0,-33.0,-116.0,208.0,246.0,-843.0,196.0,-132.0,-362.0,3
829,34.0,-39.0,-142.0,348.0,193.0,-890.0,146.0,-139.0,-480.0,3
830,12.0,-39.0,-183.0,500.0,98.0,-919.0,61.0,-145.0,-623.0,3
831,-12.0,-39.0,-224.0,656.0,-36.0,-929.0,-26.0,-162.0,-823.0,3
832,-43.0,-52.0,-254.0,832.0,-201.0,-919.0,-169.0,-196.0,-934.0,3
833,-82.0,-76.0,-260.0,1108.0,-306.0,-895.0,-317.0,-269.0,-977.0,3
834,-107.0,-106.0,-247.0,1427.0,-393.0,-852.0,-407.0,-360.0,-934.0,3
835,-94.0,-129.0,-224.0,1807.0,-501.0,-773.0,-385.0,-449.0,-847.0,3
836,-76.0,-137.0,-188.0,2195.0,-608.0,-649.0,-304.0,-507.0,-663.0,3
837,-44.0,-150.0,-136.0,2557.0,-631.0,-508.0,-203.0,-571.0,-439.0,3
838,-36.0,-151.0,-78.0,2816.0,-509.0,-385.0,-207.0,-618.0,-225.0,3
839,-63.0,-149.0,-42.0,2854.0,-247.0,-277.0,-302.0,-665.0,-73.0,3
840,-99.0,-161.0,-35.0,2529.0,72.0,-125.0,-429.0,-744.0,-24.0,3
841,-133.0,-174.0,-43.0,1817.0,364.0,115.0,-552.0,-808.0,-38.0,3
842,-138.0,-198.0,-82.0,939.0,597.0,498.0,-584.0,-887.0,-194.0,3
843,-123.0,-211.0,-107.0,56.0,758.0,911.0,-551.0,-936.0,-321.0,3
844,-98.0,-213.0,-71.0,-791.0,848.0,1218.0,-422.0,-921.0,-273.0,3
845,-82.0,-210.0,-41.0,-1522.0,843.0,1402.0,-323.0,-903.0,-31.0,3
846,-56.0,-274.0,-11.0,-2064.0,695.0,1554.0,-175.0,-1158.0,33.0,3
847,-33.0,-419.0,-48.0,-2501.0,432.0,1829.0,-100.0,-1737.0,-128.0,3
848,10.0,-579.0,-115.0,-2820.0,129.0,2221.0,43.0,-2329.0,-370.0,3
849,46.0,-706.0,-140.0,-3222.0,-75.0,2492.0,135.0,-2783.0,-469.0,3
850,72.0,-823.0,-101.0,-3627.0,-147.0,2538.0,229.0,-3147.0,-327.0,3
851,73.0,-923.0,4.0,-3771.0,-158.0,2350.0,247.0,-3436.0,52.0,3
852,21.0,-973.0,97.0,-3373.0,-211.0,2014.0,99.0,-3558.0,420.0,3
853,-63.0,-964.0,139.0,-2408.0,-340.0,1657.0,-223.0,-3508.0,623.0,3
854,-117.0,-915.0,144.0,-1126.0,-495.0,1293.0,-489.0,-3325.0,659.0,3
855,-138.0,-822.0,109.0,126.0,-611.0,884.0,-576.0,-3023.0,540.0,3
856,-124.0,-694.0,60.0,1094.0,-651.0,474.0,-541.0,-2626.0,355.0,3
857,-74.0,-570.0,10.0,1662.0,-609.0,112.0,-368.0,-2231.0,158.0,3
858,-25.0,-453.0,-23.0,1807.0,-495.0,-231.0,-174.0,-1856.0,-9.0,3
859,15.0,-367.0,-41.0,1600.0,-327.0,-652.0,11.0,-1478.0,-63.0,3
860,34.0,-300.0,-48.0,1174.0,-87.0,-1007.0,87.0,-1243.0,-81.0,3
861,45.0,-251.0,-52.0,570.0,96.0,-1307.0,130.0,-1054.0,-100.0,3
862,48.0,-213.0,-50.0,106.0,244.0,-1488.0,140.0,-890.0,-99.0,3
863,64.0,-206.0,-50.0,-246.0,391.0,-1558.0,210.0,-834.0,-99.0,3
864,88.0,-205.0,-47.0,-493.0,545.0,-1624.0,299.0,-826.0,-92.0,3
865,75.0,-196.0,-32.0,-662.0,688.0,-1700.0,258.0,-789.0,-53.0,3
866,65.0,-199.0,-32.0,-781.0,823.0,-1702.0,228.0,-807.0,-44.0,3
867,52.0,-207.0,-28.0,-928.0,910.0,-1620.0,191.0,-851.0,-19.0,3
868,66.0,-234.0,-21.0,-1128.0,945.0,-1458.0,241.0,-938.0,9.0,3
869,73.0,-256.0,-7.0,-1353.0,936.0,-1285.0,269.0,-1009.0,43.0,3
870,68.0,-274.0,1.0,-1525.0,884.0,-1129.0,266.0,-1066.0,92.0,3
871,68.0,-289.0,9.0,-1614.0,787.0,-979.0,259.0,-1119.0,113.0,3
872,70.0,-303.0,13.0,-1634.0,653.0,-811.0,265.0,-1173.0,137.0,3
873,70.0,-314.0,20.0,-1606.0,509.0,-643.0,264.0,-1214.0,183.0,3
874,69.0,-325.0,38.0,-1525.0,362.0,-427.0,261.0,-1242.0,246.0,3
875,78.0,-327.0,61.0,-1332.0,284.0,-252.0,281.0,-1253.0,326.0,3
876,80.0,-328.0,73.0,-1094.0,251.0,-126.0,287.0,-1242.0,380.0,3
877,75.0,-330.0,85.0,-809.0,249.0,-54.0,263.0,-1237.0,416.0,3
878,64.0,-331.0,83.0,-507.0,267.0,-28.0,222.0,-1233.0,414.0,3
879,48.0,-334.0,84.0,-218.0,308.0,-34.0,168.0,-1261.0,411.0,3
880,30.0,-334.0,93.0,69.0,369.0,-61.0,105.0,-1250.0,452.0,3
881,14.0,-329.0,101.0,415.0,433.0,-109.0,28.0,-1210.0,474.0,3
882,-10.0,-313.0,87.0,796.0,495.0,-147.0,-65.0,-1160.0,441.0,3
883,-32.0,-289.0,80.0,1142.0,546.0,-178.0,-141.0,-1082.0,402.0,3
884,-57.0,-250.0,54.0,1428.0,569.0,-203.0,-232.0,-962.0,312.0,3
885,-69.0,-207.0,18.0,1602.0,559.0,-212.0,-267.0,-834.0,193.0,3
886,-75.0,-168.0,-20.0,1620.0,507.0,-199.0,-281.0,-716.0,14.0,3
887,-74.0,-141.0,-53.0,1472.0,431.0,-145.0,-289.0,-599.0,-109.0,3
888,-65.0,-120.0,-74.0,1192.0,345.0,-3.0,-267.0,-528.0,-207.0,3
889,-52.0,-100.0,-88.0,793.0,259.0,117.0,-219.0,-451.0,-252.0,3
890,-45.0,-92.0,-89.0,489.0,200.0,205.0,-181.0,-394.0,-260.0,3
891,-44.0,-72.0,-85.0,270.0,155.0,270.0,-173.0,-306.0,-250.0,3
892,-42.0,-41.0,-81.0,170.0,116.0,328.0,-171.0,-169.0,-248.0,3
893,-44.0,-15.0,-101.0,163.0,90.0,364.0,-180.0,-82.0,-315.0,3
894,-45.0,5.0,-116.0,142.0,74.0,370.0,-186.0,-1.0,-376.0,3
895,-54.0,28.0,-116.0,91.0,67.0,368.0,-204.0,81.0,-377.0,3
896,-53.0,35.0,-121.0,22.0,68.0,372.0,-217.0,109.0,-390.0,3
897,-54.0,38.0,-120.0,-87.0,78.0,374.0,-211.0,118.0,-390.0,3
898,-49.0,29.0,-108.0,-222.0,84.0,368.0,-207.0,85.0,-360.0,3
899,-41.0,6.0,-85.0,-347.0,70.0,364.0,-165.0,34.0,-287.0,3
900,-37.0,-7.0,-62.0,-424.0,43.0,353.0,-152.0,-47.0,-155.0,3
901,-37.0,-25.0,-44.0,-399.0,11.0,342.0,-162.0,-95.0,-65.0,3
902,-44.0,-36.0,-32.0,-273.0,-15.0,343.0,-177.0,-129.0,-42.0,3
903,-48.0,-53.0,-40.0,-52.0,-31.0,345.0,-193.0,-192.0,-78.0,3
904,-45.0,-66.0,-67.0,151.0,-34.0,346.0,-196.0,-217.0,-183.0,3
905,-46.0,-63.0,-114.0,357.0,-20.0,352.0,-196.0,-228.0,-359.0,3
906,-39.0,-71.0,-167.0,552.0,14.0,358.0,-182.0,-258.0,-562.0,3
907,-27.0,-84.0,-212.0,772.0,72.0,354.0,-143.0,-289.0,-738.0,3
908,-11.0,-102.0,-230.0,1058.0,149.0,352.0,-76.0,-339.0,-839.0,3
909,-6.0,-112.0,-222.0,1424.0,232.0,344.0,-55.0,-404.0,-797.0,3
910,-10.0,-134.0,-203.0,1833.0,312.0,319.0,-62.0,-477.0,-720.0,3
911,-14.0,-149.0,-179.0,2226.0,383.0,260.0,-86.0,-538.0,-638.0,3
912,-12.0,-158.0,-152.0,2567.0,440.0,173.0,-66.0,-580.0,-524.0,3
913,16.0,-160.0,-118.0,2838.0,452.0,74.0,36.0,-611.0,-397.0,3
914,36.0,-153.0,-94.0,3006.0,385.0,-40.0,127.0,-638.0,-291.0,3
915,54.0,-157.0,-94.0,2978.0,233.0,-177.0,239.0,-708.0,-298.0,3
916,73.0,-166.0,-93.0,2610.0,-3.0,-379.0,308.0,-773.0,-299.0,3
917,78.0,-191.0,-88.0,1889.0,-312.0,-592.0,305.0,-863.0,-283.0,3
918,75.0,-221.0,-64.0,819.0,-482.0,-837.0,267.0,-977.0,-177.0,3
919,60.0,-263.0,-72.0,51.0,-527.0,-1069.0,190.0,-1119.0,-202.0,3
920,33.0,-274.0,-134.0,-608.0,-395.0,-1260.0,52.0,-1182.0,-432.0,3
921,-2.0,-302.0,-222.0,-1360.0,-117.0,-1397.0,-74.0,-1338.0,-774.0,3
922,-19.0,-394.0,-313.0,-2355.0,207.0,-1557.0,-178.0,-1674.0,-1124.0,3
923,-47.0,-519.0,-373.0,-3538.0,557.0,-1809.0,-279.0,-2135.0,-1369.0,3
924,-108.0,-657.0,-355.0,-4771.0,925.0,-2014.0,-475.0,-2592.0,-1367.0,3
925,-146.0,-800.0,-242.0,-5792.0,1228.0,-1968.0,-635.0,-3020.0,-989.0,3
926,-105.0,-957.0,-78.0,-6280.0,1334.0,-1631.0,-504.0,-3480.0,-377.0,3
927,-59.0,-1053.0,28.0,-6007.0,1185.0,-1190.0,-250.0,-3839.0,166.0,3
928,20.0,-1116.0,105.0,-4951.0,851.0,-813.0,42.0,-4012.0,527.0,3
929,55.0,-1079.0,136.0,-3327.0,454.0,-554.0,202.0,-3839.0,630.0,3
930,38.0,-966.0,137.0,-1464.0,113.0,-296.0,115.0,-3463.0,625.0,3
931,16.0,-818.0,108.0,294.0,-185.0,-7.0,28.0,-2992.0,526.0,3
932,18.0,-671.0,74.0,1896.0,-319.0,326.0,27.0,-2520.0,400.0,3
933,21.0,-524.0,52.0,2683.0,-359.0,617.0,48.0,-2036.0,315.0,3
934,9.0,-373.0,41.0,3043.0,-331.0,786.0,4.0,-1525.0,275.0,3
935,-6.0,-250.0,40.0,3104.0,-257.0,846.0,-49.0,-1068.0,255.0,3
936,-12.0,-177.0,44.0,2958.0,-162.0,843.0,-84.0,-712.0,268.0,3
937,-31.0,-110.0,52.0,2695.0,-108.0,824.0,-122.0,-470.0,294.0,3
938,-38.0,-69.0,50.0,2368.0,-137.0,819.0,-149.0,-334.0,289.0,3
939,-46.0,-54.0,35.0,1981.0,-238.0,836.0,-172.0,-287.0,244.0,3
940,-52.0,-56.0,13.0,1510.0,-357.0,863.0,-208.0,-294.0,152.0,3
941,-48.0,-68.0,-8.0,952.0,-433.0,889.0,-213.0,-332.0,80.0,3
942,-40.0,-85.0,-25.0,346.0,-442.0,906.0,-183.0,-416.0,-13.0,3
943,-35.0,-111.0,-30.0,-246.0,-384.0,913.0,-170.0,-496.0,-24.0,3
944,-31.0,-140.0,-25.0,-758.0,-285.0,914.0,-158.0,-580.0,-8.0,3
945,-34.0,-167.0,-14.0,-1145.0,-159.0,929.0,-161.0,-687.0,43.0,3
946,-38.0,-199.0,5.0,-1424.0,-62.0,931.0,-175.0,-798.0,129.0,3
947,-38.0,-236.0,36.0,-1513.0,-3.0,901.0,-156.0,-908.0,235.0,3
948,-27.0,-262.0,71.0,-1507.0,12.0,825.0,-127.0,-1002.0,358.0,3
949,-27.0,-284.0,108.0,-1394.0,0.0,739.0,-118.0,-1061.0,493.0,3
950,-20.0,-299.0,131.0,-1175.0,-8.0,666.0,-107.0,-1105.0,597.0,3
951,-21.0,-311.0,146.0,-873.0,-5.0,604.0,-101.0,-1131.0,657.0,3
952,-32.0,-305.0,140.0,-531.0,4.0,546.0,-130.0,-1134.0,662.0,3
953,-38.0,-299.0,129.0,-184.0,4.0,510.0,-165.0,-1118.0,610.0,3
954,-42.0,-287.0,112.0,131.0,-21.0,481.0,-167.0,-1085.0,534.0,3
955,-45.0,-275.0,84.0,392.0,-77.0,439.0,-185.0,-1048.0,432.0,3
956,-50.0,-260.0,64.0,591.0,-156.0,378.0,-192.0,-974.0,317.0,3
957,-49.0,-243.0,40.0,741.0,-251.0,295.0,-182.0,-910.0,242.0,3
958,-46.0,-225.0,24.0,856.0,-350.0,186.0,-186.0,-849.0,181.0,3
959,-45.0,-193.0,10.0,927.0,-464.0,50.0,-172.0,-751.0,132.0,3
960,-33.0,-166.0,-6.0,961.0,-558.0,-52.0,-134.0,-660.0,81.0,3
961,-23.0,-138.0,-23.0,938.0,-660.0,-136.0,-101.0,-557.0,13.0,3
962,-15.0,-111.0,-37.0,857.0,-757.0,-210.0,-70.0,-465.0,-57.0,3
963,-6.0,-86.0,-57.0,726.0,-827.0,-278.0,-29.0,-381.0,-117.0,3
964,1.0,-72.0,-71.0,549.0,-856.0,-362.0,-7.0,-312.0,-187.0,3
965,7.0,-56.0,-87.0,337.0,-835.0,-465.0,6.0,-259.0,-250.0,3
966,11.0,-45.0,-95.0,115.0,-770.0,-568.0,13.0,-199.0,-280.0,3
967,19.0,-31.0,-100.0,-84.0,-669.0,-653.0,52.0,-170.0,-310.0,3
968,22.0,-25.0,-98.0,-256.0,-555.0,-736.0,63.0,-140.0,-311.0,3
969,26.0,-19.0,-92.0,-377.0,-442.0,-802.0,75.0,-99.0,-293.0,3
970,27.0,-13.0,-91.0,-443.0,-340.0,-837.0,86.0,-73.0,-265.0,3
971,30.0,-11.0,-82.0,-461.0,-250.0,-841.0,100.0,-55.0,-246.0,3
972,34.0,-14.0,-80.0,-441.0,-160.0,-838.0,105.0,-57.0,-231.0,3
973,31.0,-15.0,-75.0,-389.0,-75.0,-835.0,111.0,-49.0,-203.0,3
974,33.0,-14.0,-71.0,-278.0,6.0,-833.0,110.0,-52.0,-195.0,3
975,33.0,-20.0,-78.0,-151.0,52.0,-829.0,117.0,-73.0,-233.0,3
976,27.0,-30.0,-100.0,-7.0,74.0,-851.0,113.0,-109.0,-312.0,3
977,20.0,-38.0,-124.0,159.0,57.0,-874.0,83.0,-132.0,-402.0,3
978,1.0,-45.0,-166.0,353.0,-8.0,-890.0,15.0,-161.0,-542.0,3
979,-10.0,-59.0,-219.0,564.0,-122.0,-894.0,-34.0,-192.0,-749.0,3
980,-28.0,-76.0,-262.0,822.0,-241.0,-893.0,-107.0,-245.0,-935.0,3
981,-54.0,-105.0,-275.0,1161.0,-316.0,-876.0,-195.0,-330.0,-1023.0,3
982,-68.0,-128.0,-262.0,1595.0,-367.0,-838.0,-267.0,-441.0,-981.0,3
983,-69.0,-150.0,-233.0,2083.0,-472.0,-757.0,-259.0,-532.0,-828.0,3
984,-50.0,-157.0,-186.0,2548.0,-645.0,-626.0,-183.0,-581.0,-642.0,3
985,-24.0,-155.0,-130.0,2934.0,-791.0,-467.0,-125.0,-590.0,-431.0,3
986,-26.0,-149.0,-87.0,3169.0,-823.0,-320.0,-171.0,-614.0,-252.0,3
987,-68.0,-145.0,-62.0,3166.0,-702.0,-164.0,-310.0,-651.0,-151.0,3
988,-102.0,-150.0,-59.0,2709.0,-421.0,2.0,-454.0,-714.0,-149.0,3
989,-120.0,-159.0,-67.0,1951.0,-157.0,260.0,-520.0,-748.0,-156.0,3
990,-101.0,-181.0,-88.0,1061.0,102.0,603.0,-457.0,-837.0,-244.0,3
991,-85.0,-198.0,-96.0,130.0,310.0,924.0,-364.0,-907.0,-294.0,3
992,-63.0,-220.0,-70.0,-769.0,415.0,1119.0,-260.0,-957.0,-192.0,3
993,-25.0,-253.0,-38.0,-1552.0,375.0,1232.0,-80.0,-1057.0,-78.0,3
994,17.0,-316.0,-55.0,-2175.0,197.0,1334.0,74.0,-1274.0,-104.0,3
995,54.0,-412.0,-122.0,-2712.0,-61.0,1519.0,189.0,-1638.0,-347.0,3
996,99.0,-514.0,-176.0,-3272.0,-283.0,1752.0,324.0,-2026.0,-577.0,3
997,148.0,-632.0,-168.0,-3838.0,-351.0,1977.0,469.0,-2420.0,-569.0,3
998,167.0,-754.0,-85.0,-4288.0,-261.0,2097.0,571.0,-2893.0,-255.0,3
999,142.0,-881.0,35.0,-4423.0,-129.0,2079.0,508.0,-3254.0,196.0,3
1000,92.0,-950.0,94.0,-4033.0,-86.0,1917.0,283.0,-3513.0,498.0,3
1001,-5.0,-981.0,131.0,-3101.0,-155.0,1629.0,-87.0,-3560.0,605.0,3
1002,-80.0,-953.0,127.0,-1806.0,-294.0,1334.0,-369.0,-3436.0,584.0,3
1003,-103.0,-860.0,107.0,-159.0,-392.0,973.0,-450.0,-3131.0,517.0,3
1004,-87.0,-741.0,77.0,1040.0,-452.0,596.0,-406.0,-2740.0,417.0,3
1005,-63.0,-629.0,33.0,1904.0,-458.0,226.0,-298.0,-2419.0,231.0,3
1006,-19.0,-515.0,3.0,2307.0,-402.0,-133.0,-160.0,-2039.0,135.0,3
1007,10.0,-413.0,-19.0,2317.0,-281.0,-508.0,-25.0,-1697.0,55.0,3
1008,39.0,-329.0,-32.0,2011.0,-98.0,-893.0,70.0,-1420.0,-19.0,3
1009,49.0,-278.0,-38.0,1509.0,118.0,-1224.0,143.0,-1169.0,-38.0,3
1010,52.0,-223.0,-34.0,928.0,324.0,-1482.0,168.0,-965.0,-40.0,3
1011,59.0,-183.0,-25.0,354.0,506.0,-1619.0,188.0,-790.0,6.0,3
1012,62.0,-165.0,-22.0,-142.0,680.0,-1665.0,207.0,-710.0,10.0,3
1013,55.0,-176.0,-16.0,-563.0,843.0,-1665.0,192.0,-726.0,28.0,3
1014,50.0,-191.0,-15.0,-930.0,953.0,-1634.0,180.0,-789.0,50.0,3
1015,46.0,-208.0,-4.0,-1258.0,981.0,-1536.0,173.0,-850.0,87.0,3
1016,55.0,-241.0,8.0,-1531.0,915.0,-1337.0,204.0,-949.0,118.0,3
1017,60.0,-271.0,13.0,-1764.0,820.0,-1157.0,236.0,-1053.0,149.0,3
1018,49.0,-284.0,24.0,-1853.0,701.0,-997.0,189.0,-1120.0,192.0,3
1019,47.0,-310.0,38.0,-1817.0,560.0,-797.0,188.0,-1176.0,246.0,3
1020,63.0,-327.0,50.0,-1663.0,416.0,-605.0,232.0,-1232.0,281.0,3
1021,72.0,-335.0,70.0,-1433.0,298.0,-452.0,269.0,-1253.0,350.0,3
1022,77.0,-335.0,89.0,-1137.0,226.0,-338.0,270.0,-1262.0,423.0,3
1023,75.0,-338.0,96.0,-790.0,202.0,-224.0,267.0,-1255.0,473.0,3
1024,76.0,-332.0,104.0,-416.0,217.0,-125.0,272.0,-1233.0,501.0,3
1025,75.0,-325.0,96.0,-27.0,259.0,-57.0,266.0,-1213.0,483.0,3
1026,61.0,-312.0,86.0,362.0,307.0,-31.0,222.0,-1158.0,444.0,3
1027,51.0,-300.0,81.0,745.0,346.0,-23.0,165.0,-1101.0,400.0,3
1028,34.0,-270.0,67.0,1110.0,377.0,-18.0,90.0,-1016.0,343.0,3
1029,17.0,-254.0,46.0,1406.0,406.0,3.0,39.0,-945.0,263.0,3
1030,-3.0,-220.0,32.0,1593.0,440.0,7.0,-19.0,-850.0,218.0,3
1031,-7.0,-192.0,8.0,1694.0,474.0,30.0,-53.0,-756.0,134.0,3
1032,-19.0,-161.0,-17.0,1652.0,491.0,61.0,-86.0,-670.0,38.0,3
1033,-23.0,-136.0,-51.0,1486.0,495.0,135.0,-112.0,-584.0,-80.0,3
1034,-24.0,-118.0,-63.0,1204.0,485.0,248.0,-115.0,-528.0,-158.0,3
1035,-30.0,-106.0,-69.0,873.0,455.0,378.0,-120.0,-474.0,-185.0,3
1036,-30.0,-96.0,-72.0,572.0,408.0,486.0,-127.0,-423.0,-200.0,3
1037,-43.0,-74.0,-69.0,365.0,352.0,551.0,-168.0,-304.0,-197.0,3
1038,-59.0,-42.0,-78.0,283.0,286.0,601.0,-229.0,-179.0,-203.0,3
1039,-71.0,-6.0,-86.0,273.0,216.0,658.0,-270.0,-27.0,-272.0,3
1040,-73.0,19.0,-109.0,265.0,157.0,710.0,-283.0,52.0,-359.0,3
1041,-70.0,29.0,-137.0,187.0,125.0,716.0,-272.0,76.0,-465.0,3
1042,-64.0,41.0,-142.0,2.0,112.0,670.0,-261.0,122.0,-481.0,3
1043,-65.0,35.0,-137.0,-210.0,97.0,625.0,-258.0,105.0,-474.0,3
1044,-57.0,28.0,-119.0,-412.0,88.0,588.0,-220.0,82.0,-405.0,3
1045,-42.0,9.0,-96.0,-559.0,85.0,560.0,-183.0,40.0,-318.0,3
1046,-40.0,-10.0,-76.0,-573.0,78.0,523.0,-162.0,-43.0,-224.0,3
1047,-38.0,-36.0,-46.0,-495.0,57.0,500.0,-156.0,-127.0,-114.0,3
1048,-37.0,-62.0,-24.0,-301.0,31.0,495.0,-161.0,-193.0,-7.0,3
1049,-34.0,-81.0,-10.0,17.0,6.0,507.0,-142.0,-259.0,51.0,3
1050,-33.0,-88.0,-27.0,404.0,-8.0,499.0,-149.0,-288.0,10.0,3
1051,-34.0,-82.0,-51.0,805.0,-2.0,487.0,-133.0,-290.0,-77.0,3
1052,-11.0,-83.0,-99.0,1184.0,14.0,472.0,-91.0,-298.0,-244.0,3
1053,-4.0,-90.0,-147.0,1466.0,50.0,461.0,-33.0,-341.0,-492.0,3
1054,4.0,-99.0,-170.0,1656.0,102.0,442.0,-6.0,-365.0,-587.0,3
1055,9.0,-112.0,-168.0,1859.0,153.0,425.0,19.0,-408.0,-573.0,3
1056,9.0,-131.0,-142.0,2145.0,211.0,402.0,12.0,-468.0,-467.0,3
1057,5.0,-153.0,-109.0,2503.0,297.0,363.0,-18.0,-547.0,-340.0,3
1058,-5.0,-168.0,-62.0,2883.0,393.0,289.0,-40.0,-600.0,-163.0,3
1059,7.0,-179.0,-29.0,3330.0,456.0,255.0,13.0,-657.0,-24.0,3
1060,44.0,-198.0,-25.0,3593.0,418.0,200.0,153.0,-789.0,5.0,3
1061,86.0,-226.0,-84.0,3511.0,276.0,42.0,331.0,-983.0,-197.0,3
1062,99.0,-237.0,-144.0,2834.0,65.0,-309.0,382.0,-1122.0,-463.0,3
1063,80.0,-207.0,-161.0,1587.0,-120.0,-719.0,310.0,-1068.0,-581.0,3
1064,68.0,-193.0,-136.0,110.0,-218.0,-995.0,243.0,-943.0,-469.0,3
1065,69.0,-187.0,-99.0,-1228.0,-240.0,-1078.0,248.0,-880.0,-312.0,3
1066,69.0,-218.0,-128.0,-2306.0,-260.0,-1074.0,262.0,-962.0,-404.0,3
1067,37.0,-286.0,-206.0,-3292.0,-371.0,-1122.0,148.0,-1273.0,-745.0,3
1068,-12.0,-376.0,-275.0,-4263.0,-454.0,-1254.0,-134.0,-1570.0,-1007.0,3
1069,-67.0,-464.0,-314.0,-5079.0,-310.0,-1428.0,-376.0,-1869.0,-1141.0,3
1070,-96.0,-594.0,-287.0,-5624.0,72.0,-1516.0,-493.0,-2295.0,-1056.0,3
1071,-123.0,-730.0,-189.0,-5831.0,529.0,-1450.0,-581.0,-2716.0,-698.0,3
1072,-139.0,-877.0,-67.0,-5603.0,899.0,-1218.0,-605.0,-3178.0,-236.0,3
1073,-134.0,-979.0,9.0,-4727.0,1081.0,-1033.0,-562.0,-3598.0,149.0,3
1074,-105.0,-1069.0,75.0,-3519.0,1006.0,-918.0,-437.0,-3874.0,373.0,3
1075,-62.0,-1081.0,100.0,-1970.0,798.0,-807.0,-267.0,-3898.0,477.0,3
1076,-30.0,-1006.0,88.0,-271.0,546.0,-649.0,-150.0,-3681.0,448.0,3
1077,-12.0,-883.0,55.0,1274.0,295.0,-429.0,-87.0,-3316.0,328.0,3
1078,-12.0,-730.0,31.0,2431.0,94.0,-177.0,-88.0,-2824.0,234.0,3
1079,-14.0,-566.0,17.0,3143.0,-21.0,103.0,-91.0,-2280.0,183.0,3
1080,-12.0,-419.0,13.0,3457.0,-76.0,364.0,-83.0,-1770.0,151.0,3
1081,-1.0,-298.0,13.0,3442.0,-108.0,588.0,-34.0,-1227.0,161.0,3
1082,3.0,-218.0,22.0,3187.0,-136.0,744.0,4.0,-859.0,188.0,3
1083,11.0,-131.0,34.0,2785.0,-159.0,847.0,25.0,-550.0,221.0,3
1084,7.0,-73.0,33.0,2327.0,-188.0,908.0,24.0,-349.0,230.0,3
1085,-5.0,-44.0,34.0,1853.0,-238.0,963.0,-14.0,-244.0,216.0,3
1086,-11.0,-33.0,25.0,1356.0,-308.0,1020.0,-28.0,-229.0,183.0,3
1087,-11.0,-43.0,17.0,807.0,-409.0,1061.0,-45.0,-269.0,160.0,3
1088,-25.0,-64.0,14.0,92.0,-481.0,1093.0,-89.0,-330.0,157.0,3
1089,-27.0,-96.0,20.0,-495.0,-513.0,1137.0,-129.0,-425.0,171.0,3
1090,-33.0,-131.0,30.0,-1007.0,-515.0,1184.0,-141.0,-532.0,201.0,3
1091,-36.0,-159.0,43.0,-1386.0,-491.0,1239.0,-164.0,-648.0,254.0,3
1092,-29.0,-200.0,59.0,-1608.0,-458.0,1254.0,-136.0,-771.0,329.0,3
1093,-29.0,-237.0,84.0,-1689.0,-445.0,1200.0,-124.0,-888.0,404.0,3
1094,-21.0,-257.0,107.0,-1635.0,-445.0,1103.0,-119.0,-956.0,517.0,3
1095,-20.0,-274.0,126.0,-1447.0,-441.0,1011.0,-96.0,-1020.0,589.0,3
1096,-11.0,-287.0,134.0,-1161.0,-417.0,927.0,-65.0,-1047.0,614.0,3
1097,-11.0,-279.0,132.0,-816.0,-367.0,865.0,-58.0,-1036.0,620.0,3
1098,-10.0,-275.0,121.0,-449.0,-286.0,813.0,-70.0,-1008.0,579.0,3
1099,-11.0,-257.0,103.0,-102.0,-192.0,771.0,-62.0,-967.0,505.0,3
1100,-12.0,-246.0,88.0,175.0,-116.0,722.0,-72.0,-916.0,421.0,3
1101,-16.0,-223.0,65.0,361.0,-68.0,659.0,-80.0,-854.0,345.0,3
1102,-25.0,-203.0,47.0,503.0,-71.0,603.0,-108.0,-781.0,267.0,3
1103,-31.0,-180.0,27.0,577.0,-104.0,555.0,-129.0,-697.0,201.0,3
1104,-28.0,-167.0,7.0,618.0,-160.0,500.0,-113.0,-663.0,123.0,3
1105,-26.0,-153.0,-19.0,601.0,-229.0,417.0,-102.0,-628.0,45.0,3
1106,-20.0,-147.0,-37.0,528.0,-304.0,306.0,-95.0,-594.0,-33.0,3
1107,-14.0,-137.0,-54.0,404.0,-372.0,185.0,-74.0,-568.0,-113.0,3
1108,-8.0,-133.0,-69.0,242.0,-425.0,54.0,-50.0,-544.0,-188.0,3
1109,1.0,-125.0,-84.0,68.0,-465.0,-72.0,-13.0,-507.0,-237.0,3
1110,10.0,-117.0,-89.0,-103.0,-492.0,-199.0,38.0,-487.0,-274.0,3
1111,23.0,-110.0,-101.0,-273.0,-509.0,-325.0,81.0,-452.0,-307.0,3
1112,35.0,-104.0,-102.0,-438.0,-505.0,-451.0,120.0,-419.0,-319.0,3
1113,48.0,-94.0,-103.0,-571.0,-473.0,-560.0,166.0,-389.0,-308.0,3
1114,54.0,-89.0,-95.0,-652.0,-425.0,-653.0,195.0,-373.0,-292.0,3
1115,66.0,-89.0,-89.0,-669.0,-342.0,-732.0,237.0,-352.0,-260.0,3
1116,75.0,-89.0,-81.0,-605.0,-257.0,-794.0,262.0,-343.0,-242.0,3
1117,79.0,-88.0,-74.0,-501.0,-159.0,-850.0,267.0,-332.0,-212.0,3
1118,77.0,-81.0,-62.0,-356.0,-55.0,-902.0,275.0,-312.0,-174.0,3
1119,75.0,-79.0,-60.0,-178.0,39.0,-940.0,274.0,-287.0,-146.0,3
1120,74.0,-75.0,-63.0,19.0,115.0,-979.0,268.0,-278.0,-157.0,3
1121,66.0,-69.0,-71.0,205.0,168.0,-1032.0,253.0,-265.0,-193.0,3
1122,52.0,-63.0,-87.0,376.0,188.0,-1100.0,206.0,-233.0,-279.0,3
1123,31.0,-58.0,-113.0,542.0,168.0,-1152.0,111.0,-201.0,-371.0,3
1124,1.0,-52.0,-139.0,712.0,106.0,-1198.0,11.0,-187.0,-486.0,3
1125,-20.0,-58.0,-178.0,888.0,10.0,-1216.0,-73.0,-202.0,-624.0,3
1126,-43.0,-66.0,-210.0,1071.0,-101.0,-1211.0,-168.0,-240.0,-731.0,3
1127,-74.0,-87.0,-212.0,1271.0,-183.0,-1177.0,-281.0,-310.0,-785.0,3
1128,-99.0,-109.0,-209.0,1516.0,-249.0,-1118.0,-385.0,-406.0,-746.0,3
1129,-103.0,-135.0,-184.0,1813.0,-369.0,-1007.0,-401.0,-494.0,-657.0,3
1130,-87.0,-154.0,-156.0,2194.0,-497.0,-896.0,-351.0,-571.0,-541.0,3
1131,-61.0,-157.0,-118.0,2456.0,-578.0,-765.0,-274.0,-593.0,-395.0,3
1132,-52.0,-144.0,-77.0,2634.0,-539.0,-641.0,-247.0,-584.0,-226.0,3
1133,-88.0,-150.0,-58.0,2648.0,-355.0,-519.0,-379.0,-643.0,-154.0,3
1134,-136.0,-175.0,-71.0,2365.0,-78.0,-335.0,-556.0,-776.0,-162.0,3
1135,-157.0,-196.0,-85.0,1731.0,200.0,-34.0,-654.0,-893.0,-223.0,3
1136,-140.0,-200.0,-98.0,875.0,411.0,346.0,-597.0,-920.0,-290.0,3
1137,-121.0,-196.0,-83.0,-42.0,546.0,693.0,-472.0,-884.0,-219.0,3
1138,-99.0,-204.0,-25.0,-914.0,632.0,929.0,-381.0,-906.0,16.0,3
1139,-65.0,-237.0,45.0,-1662.0,661.0,1147.0,-228.0,-1019.0,253.0,3
1140,-38.0,-322.0,13.0,-2243.0,517.0,1428.0,-108.0,-1335.0,138.0,3
1141,-23.0,-436.0,-75.0,-2770.0,183.0,1785.0,-68.0,-1759.0,-206.0,3
1142,22.0,-560.0,-128.0,-3254.0,-179.0,2142.0,49.0,-2187.0,-411.0,3
1143,75.0,-675.0,-104.0,-3597.0,-384.0,2394.0,218.0,-2550.0,-336.0,3
1144,100.0,-766.0,-36.0,-3695.0,-363.0,2357.0,314.0,-2848.0,-94.0,3
1145,81.0,-838.0,54.0,-3451.0,-239.0,2159.0,289.0,-3080.0,222.0,3
1146,47.0,-876.0,100.0,-2853.0,-178.0,1888.0,141.0,-3213.0,488.0,3
1147,-23.0,-881.0,125.0,-1920.0,-214.0,1622.0,-126.0,-3208.0,592.0,3
1148,-97.0,-840.0,109.0,-808.0,-272.0,1373.0,-400.0,-3083.0,532.0,3
1149,-125.0,-771.0,73.0,269.0,-316.0,1115.0,-520.0,-2874.0,412.0,3
1150,-127.0,-686.0,29.0,1120.0,-343.0,826.0,-544.0,-2550.0,207.0,3
1151,-86.0,-588.0,-3.0,1606.0,-350.0,512.0,-374.0,-2266.0,81.0,3
1152,-40.0,-499.0,-20.0,1672.0,-348.0,122.0,-191.0,-1979.0,25.0,3
1153,12.0,-423.0,-25.0,1389.0,-340.0,-323.0,-5.0,-1712.0,-2.0,3
1154,56.0,-365.0,-29.0,886.0,-289.0,-772.0,155.0,-1512.0,-23.0,3
1155,79.0,-324.0,-28.0,309.0,-157.0,-1190.0,259.0,-1293.0,-11.0,3
1156,100.0,-263.0,-15.0,-230.0,36.0,-1525.0,332.0,-1077.0,25.0,3
1157,119.0,-222.0,-5.0,-682.0,306.0,-1735.0,391.0,-904.0,68.0,3
1158,120.0,-197.0,-3.0,-1117.0,562.0,-1790.0,421.0,-832.0,86.0,3
1159,129.0,-201.0,8.0,-1431.0,827.0,-1752.0,438.0,-830.0,119.0,3
1160,133.0,-215.0,24.0,-1702.0,1053.0,-1667.0,476.0,-872.0,169.0,3
1161,113.0,-237.0,40.0,-1904.0,1196.0,-1558.0,429.0,-917.0,239.0,3
1162,91.0,-265.0,60.0,-1997.0,1239.0,-1421.0,348.0,-996.0,291.0,3
1163,93.0,-292.0,66.0,-1974.0,1197.0,-1252.0,347.0,-1088.0,351.0,3
1164,90.0,-306.0,76.0,-1850.0,1092.0,-1101.0,349.0,-1179.0,381.0,3
1165,92.0,-336.0,75.0,-1633.0,951.0,-946.0,341.0,-1272.0,378.0,3
1166,89.0,-353.0,75.0,-1335.0,788.0,-796.0,337.0,-1331.0,388.0,3
1167,91.0,-360.0,77.0,-958.0,639.0,-653.0,336.0,-1348.0,398.0,3
1168,92.0,-364.0,85.0,-535.0,537.0,-522.0,338.0,-1344.0,414.0,3
1169,83.0,-354.0,86.0,-85.0,484.0,-418.0,294.0,-1311.0,425.0,3
1170,67.0,-325.0,86.0,362.0,461.0,-352.0,244.0,-1219.0,428.0,3
1171,54.0,-302.0,71.0,770.0,437.0,-293.0,204.0,-1137.0,380.0,3
1172,34.0,-269.0,65.0,1196.0,383.0,-269.0,130.0,-1044.0,335.0,3
1173,11.0,-243.0,48.0,1485.0,336.0,-238.0,35.0,-906.0,286.0,3
1174,-2.0,-211.0,24.0,1703.0,305.0,-185.0,-25.0,-812.0,212.0,3
1175,-11.0,-180.0,9.0,1823.0,293.0,-127.0,-64.0,-705.0,127.0,3
1176,-24.0,-148.0,-22.0,1827.0,292.0,-77.0,-101.0,-635.0,15.0,3
1177,-33.0,-130.0,-56.0,1685.0,294.0,-4.0,-140.0,-564.0,-105.0,3
1178,-32.0,-113.0,-81.0,1400.0,283.0,133.0,-146.0,-510.0,-235.0,3
1179,-29.0,-99.0,-106.0,999.0,272.0,317.0,-127.0,-478.0,-332.0,3
1180,-31.0,-90.0,-104.0,537.0,271.0,495.0,-138.0,-418.0,-346.0,3
1181,-38.0,-75.0,-93.0,114.0,274.0,655.0,-167.0,-353.0,-299.0,3
1182,-61.0,-54.0,-87.0,-187.0,273.0,763.0,-234.0,-247.0,-258.0,3
1183,-69.0,-38.0,-82.0,-351.0,264.0,850.0,-265.0,-162.0,-256.0,3
1184,-76.0,-16.0,-90.0,-437.0,233.0,904.0,-293.0,-77.0,-257.0,3
1185,-85.0,2.0,-88.0,-485.0,186.0,936.0,-335.0,7.0,-259.0,3
1186,-89.0,23.0,-87.0,-514.0,117.0,941.0,-337.0,73.0,-262.0,3
1187,-82.0,35.0,-91.0,-534.0,55.0,926.0,-328.0,116.0,-268.0,3
1188,-77.0,34.0,-91.0,-545.0,-10.0,892.0,-308.0,134.0,-275.0,3
1189,-70.0,23.0,-81.0,-559.0,-73.0,845.0,-277.0,86.0,-266.0,3
1190,-58.0,0.0,-67.0,-542.0,-129.0,774.0,-225.0,22.0,-208.0,3
1191,-62.0,-17.0,-56.0,-467.0,-165.0,700.0,-242.0,-33.0,-127.0,3
1192,-59.0,-31.0,-39.0,-325.0,-185.0,656.0,-237.0,-103.0,-37.0,3
1193,-63.0,-43.0,-16.0,-100.0,-186.0,609.0,-251.0,-154.0,20.0,3
1194,-67.0,-63.0,-15.0,179.0,-180.0,575.0,-275.0,-207.0,42.0,3
1195,-62.0,-70.0,-6.0,464.0,-179.0,578.0,-256.0,-241.0,61.0,3
1196,-51.0,-72.0,-24.0,756.0,-177.0,580.0,-215.0,-253.0,0.0,3
1197,-28.0,-69.0,-60.0,1037.0,-154.0,575.0,-129.0,-249.0,-138.0,3
1198,-9.0,-60.0,-111.0,1287.0,-91.0,551.0,-69.0,-220.0,-328.0,3
1199,1.0,-48.0,-161.0,1472.0,16.0,511.0,-34.0,-196.0,-527.0,3
1200,15.0,-45.0,-217.0,1584.0,175.0,465.0,14.0,-190.0,-732.0,3
1201,29.0,-47.0,-236.0,1645.0,309.0,412.0,83.0,-186.0,-857.0,3
1202,33.0,-58.0,-243.0,1740.0,416.0,351.0,104.0,-222.0,-888.0,3
1203,25.0,-90.0,-234.0,1879.0,500.0,260.0,68.0,-324.0,-847.0,3
1204,9.0,-120.0,-189.0,2075.0,573.0,127.0,16.0,-430.0,-719.0,3
1205,8.0,-147.0,-143.0,2369.0,604.0,-6.0,29.0,-519.0,-455.0,3
1206,9.0,-162.0,-93.0,2730.0,549.0,-136.0,73.0,-619.0,-277.0,3
1207,29.0,-169.0,-76.0,2983.0,344.0,-277.0,164.0,-698.0,-204.0,3
1208,66.0,-187.0,-98.0,2887.0,-19.0,-464.0,293.0,-851.0,-292.0,3
1209,91.0,-209.0,-122.0,2225.0,-448.0,-748.0,358.0,-1005.0,-408.0,3
1210,81.0,-219.0,-123.0,1040.0,-784.0,-1106.0,295.0,-1060.0,-411.0,3
1211,63.0,-246.0,-95.0,-295.0,-928.0,-1393.0,187.0,-1102.0,-288.0,3
1212,51.0,-280.0,-112.0,-1381.0,-831.0,-1558.0,128.0,-1198.0,-326.0,3
1213,29.0,-300.0,-156.0,-2236.0,-580.0,-1687.0,45.0,-1288.0,-501.0,3
1214,32.0,-375.0,-223.0,-3335.0,-272.0,-1772.0,39.0,-1572.0,-753.0,3
1215,30.0,-534.0,-296.0,-4410.0,-1.0,-1949.0,11.0,-2122.0,-1040.0,3
1216,-5.0,-719.0,-344.0,-5446.0,413.0,-2209.0,-126.0,-2756.0,-1246.0,3
1217,-83.0,-895.0,-296.0,-6245.0,876.0,-2318.0,-369.0,-3355.0,-1141.0,3
1218,-148.0,-1057.0,-153.0,-6554.0,1185.0,-2092.0,-626.0,-3837.0,-677.0,3
1219,-150.0,-1161.0,-47.0,-6137.0,1221.0,-1536.0,-624.0,-4250.0,-15.0,3
1220,-112.0,-1229.0,56.0,-4943.0,991.0,-881.0,-411.0,-4437.0,330.0,3
1221,-41.0,-1177.0,109.0,-3117.0,604.0,-374.0,-164.0,-4168.0,508.0,3
1222,-19.0,-1045.0,109.0,-1006.0,201.0,-71.0,-95.0,-3736.0,509.0,3
1223,-12.0,-889.0,86.0,952.0,-116.0,203.0,-87.0,-3250.0,432.0,3
1224,4.0,-720.0,60.0,2431.0,-294.0,508.0,-41.0,-2719.0,341.0,3
1225,24.0,-530.0,48.0,3264.0,-316.0,783.0,22.0,-2106.0,293.0,3
1226,22.0,-358.0,57.0,3523.0,-220.0,944.0,48.0,-1494.0,317.0,3
1227,9.0,-220.0,68.0,3420.0,-100.0,990.0,6.0,-975.0,358.0,3
1228,-6.0,-148.0,81.0,3169.0,-15.0,984.0,-25.0,-607.0,413.0,3
1229,-18.0,-78.0,91.0,2815.0,-48.0,965.0,-72.0,-354.0,440.0,3
1230,-36.0,-38.0,81.0,2474.0,-175.0,955.0,-115.0,-217.0,409.0,3
1231,-42.0,-21.0,60.0,2049.0,-354.0,967.0,-136.0,-170.0,335.0,3
1232,-27.0,-20.0,36.0,1515.0,-533.0,993.0,-106.0,-179.0,233.0,3
1233,-16.0,-33.0,7.0,899.0,-652.0,1011.0,-74.0,-215.0,126.0,3
1234,-6.0,-57.0,-14.0,261.0,-673.0,1035.0,-45.0,-306.0,48.0,3
1235,-4.0,-86.0,-27.0,-330.0,-600.0,1057.0,-55.0,-398.0,-12.0,3
1236,-10.0,-122.0,-36.0,-825.0,-469.0,1079.0,-64.0,-510.0,-34.0,3
1237,-11.0,-150.0,-28.0,-1195.0,-317.0,1096.0,-93.0,-631.0,-20.0,3
1238,-21.0,-190.0,-15.0,-1448.0,-199.0,1078.0,-99.0,-763.0,43.0,3
1239,-14.0,-222.0,8.0,-1595.0,-142.0,1017.0,-67.0,-871.0,126.0,3
1240,-6.0,-251.0,37.0,-1638.0,-137.0,924.0,-33.0,-945.0,234.0,3
1241,-1.0,-269.0,68.0,-1582.0,-158.0,818.0,-16.0,-1018.0,340.0,3
1242,12.0,-290.0,89.0,-1434.0,-170.0,753.0,12.0,-1076.0,433.0,3
1243,16.0,-304.0,111.0,-1150.0,-151.0,701.0,34.0,-1115.0,516.0,3
1244,22.0,-311.0,120.0,-839.0,-108.0,653.0,55.0,-1144.0,556.0,3
1245,14.0,-314.0,110.0,-498.0,-64.0,605.0,49.0,-1161.0,532.0,3
1246,12.0,-313.0,93.0,-184.0,-34.0,553.0,27.0,-1165.0,467.0,3
1247,2.0,-304.0,72.0,72.0,-34.0,500.0,-6.0,-1155.0,364.0,3
1248,-6.0,-288.0,54.0,271.0,-53.0,440.0,-38.0,-1102.0,289.0,3
1249,-9.0,-277.0,36.0,425.0,-85.0,362.0,-48.0,-1059.0,237.0,3
1250,-11.0,-260.0,25.0,530.0,-118.0,259.0,-59.0,-978.0,191.0,3
1251,-10.0,-241.0,15.0,603.0,-150.0,157.0,-61.0,-917.0,148.0,3
1252,-6.0,-221.0,0.0,656.0,-176.0,65.0,-44.0,-853.0,92.0,3
1253,-2.0,-197.0,-18.0,695.0,-192.0,-23.0,-13.0,-784.0,30.0,3
1254,8.0,-174.0,-38.0,711.0,-201.0,-108.0,10.0,-697.0,-35.0,3
1255,13.0,-145.0,-56.0,684.0,-202.0,-194.0,30.0,-602.0,-111.0,3
1256,20.0,-123.0,-66.0,611.0,-184.0,-298.0,65.0,-507.0,-172.0,3
1257,21.0,-99.0,-81.0,465.0,-151.0,-388.0,68.0,-420.0,-234.0,3
1258,26.0,-76.0,-91.0,306.0,-98.0,-469.0,84.0,-345.0,-276.0,3
1259,36.0,-64.0,-96.0,130.0,-36.0,-551.0,100.0,-283.0,-299.0,3
1260,28.0,-50.0,-98.0,-31.0,24.0,-618.0,84.0,-226.0,-300.0,3
1261,30.0,-43.0,-90.0,-152.0,77.0,-663.0,100.0,-187.0,-267.0,3
1262,24.0,-35.0,-81.0,-211.0,117.0,-700.0,92.0,-143.0,-238.0,3
1263,28.0,-29.0,-75.0,-210.0,144.0,-722.0,100.0,-116.0,-209.0,3
1264,33.0,-22.0,-63.0,-164.0,166.0,-734.0,108.0,-96.0,-171.0,3
1265,35.0,-16.0,-59.0,-92.0,192.0,-742.0,115.0,-62.0,-140.0,3
1266,37.0,-11.0,-49.0,-10.0,233.0,-745.0,128.0,-37.0,-115.0,3
1267,40.0,-3.0,-46.0,84.0,279.0,-747.0,145.0,-24.0,-91.0,3
1268,38.0,-3.0,-46.0,180.0,318.0,-766.0,135.0,-10.0,-105.0,3
1269,27.0,-4.0,-64.0,269.0,337.0,-784.0,112.0,-18.0,-151.0,3
1270,11.0,-6.0,-85.0,351.0,327.0,-801.0,62.0,-32.0,-245.0,3
1271,-10.0,-5.0,-124.0,432.0,264.0,-821.0,-17.0,-46.0,-377.0,3
1272,-26.0,-10.0,-176.0,461.0,155.0,-841.0,-71.0,-54.0,-565.0,3
1273,-42.0,-17.0,-222.0,453.0,-2.0,-864.0,-130.0,-68.0,-747.0,3
1274,-60.0,-29.0,-241.0,486.0,-158.0,-890.0,-236.0,-107.0,-888.0,3
1275,-90.0,-58.0,-251.0,659.0,-251.0,-895.0,-356.0,-202.0,-943.0,3
1276,-108.0,-90.0,-247.0,997.0,-296.0,-866.0,-420.0,-316.0,-890.0,3
1277,-96.0,-113.0,-223.0,1408.0,-365.0,-786.0,-365.0,-419.0,-816.0,3
1278,-65.0,-129.0,-186.0,1796.0,-460.0,-634.0,-258.0,-490.0,-683.0,3
1279,-34.0,-139.0,-137.0,2106.0,-510.0,-447.0,-173.0,-532.0,-464.0,3
1280,-14.0,-137.0,-75.0,2297.0,-434.0,-278.0,-121.0,-559.0,-238.0,3
1281,-23.0,-145.0,-46.0,2290.0,-216.0,-140.0,-151.0,-633.0,-96.0,3
1282,-69.0,-167.0,-36.0,1952.0,96.0,31.0,-296.0,-757.0,-40.0,3
1283,-93.0,-197.0,-32.0,1287.0,464.0,319.0,-433.0,-908.0,-14.0,3
1284,-78.0,-253.0,-44.0,514.0,848.0,803.0,-363.0,-1101.0,-80.0,3
1285,-75.0,-287.0,-56.0,-239.0,1191.0,1133.0,-314.0,-1216.0,-133.0,3
1286,-70.0,-292.0,-45.0,-1042.0,1280.0,1338.0,-276.0,-1202.0,-74.0,3
1287,-47.0,-295.0,-19.0,-1582.0,1196.0,1453.0,-189.0,-1196.0,-1.0,3
1288,-46.0,-367.0,-51.0,-2065.0,967.0,1561.0,-135.0,-1418.0,-68.0,3
1289,-43.0,-515.0,-104.0,-2570.0,567.0,1836.0,-132.0,-2085.0,-340.0,3
1290,2.0,-666.0,-146.0,-3064.0,103.0,2195.0,11.0,-2607.0,-477.0,3
1291,60.0,-788.0,-143.0,-3475.0,-263.0,2384.0,178.0,-3012.0,-491.0,3
1292,111.0,-871.0,-100.0,-3692.0,-453.0,2304.0,376.0,-3341.0,-268.0,3
1293,127.0,-950.0,-5.0,-3521.0,-485.0,1969.0,409.0,-3518.0,103.0,3
1294,69.0,-966.0,68.0,-2845.0,-442.0,1543.0,186.0,-3521.0,376.0,3
1295,-26.0,-931.0,102.0,-1771.0,-386.0,1166.0,-161.0,-3395.0,489.0,3
1296,-90.0,-852.0,84.0,-593.0,-305.0,784.0,-416.0,-3155.0,429.0,3
1297,-112.0,-751.0,57.0,395.0,-184.0,367.0,-509.0,-2823.0,331.0,3
1298,-103.0,-634.0,29.0,1062.0,-45.0,-27.0,-471.0,-2475.0,234.0,3
1299,-68.0,-529.0,23.0,1363.0,117.0,-464.0,-341.0,-2119.0,189.0,3
1300,-21.0,-433.0,23.0,1318.0,222.0,-818.0,-171.0,-1795.0,178.0,3
1301,0.0,-376.0,22.0,1050.0,305.0,-1164.0,-18.0,-1505.0,181.0,3
1302,30.0,-315.0,31.0,710.0,378.0,-1459.0,76.0,-1272.0,199.0,3
1303,37.0,-258.0,37.0,423.0,436.0,-1642.0,106.0,-996.0,235.0,3
1304,61.0,-229.0,29.0,264.0,482.0,-1689.0,220.0,-887.0,202.0,3
1305,71.0,-212.0,23.0,197.0,565.0,-1719.0,239.0,-827.0,179.0,3
1306,57.0,-198.0,15.0,182.0,691.0,-1740.0,202.0,-789.0,153.0,3
1307,38.0,-193.0,4.0,168.0,814.0,-1726.0,123.0,-765.0,133.0,3
1308,22.0,-197.0,0.0,91.0,913.0,-1623.0,63.0,-810.0,97.0,3
1309,32.0,-208.0,7.0,-92.0,961.0,-1437.0,103.0,-853.0,104.0,3
1310,57.0,-223.0,14.0,-346.0,959.0,-1209.0,208.0,-901.0,124.0,3
1311,64.0,-230.0,8.0,-618.0,920.0,-1026.0,251.0,-946.0,117.0,3
1312,68.0,-246.0,10.0,-898.0,859.0,-866.0,247.0,-996.0,132.0,3
1313,64.0,-260.0,23.0,-1150.0,783.0,-647.0,245.0,-1047.0,172.0,3
1314,63.0,-283.0,33.0,-1357.0,659.0,-439.0,248.0,-1105.0,222.0,3
1315,70.0,-299.0,54.0,-1419.0,534.0,-251.0,266.0,-1155.0,275.0,3
1316,63.0,-310.0,72.0,-1380.0,415.0,-85.0,249.0,-1182.0,345.0,3
1317,69.0,-322.0,84.0,-1240.0,322.0,56.0,248.0,-1185.0,423.0,3
1318,60.0,-325.0,89.0,-999.0,264.0,145.0,213.0,-1201.0,436.0,3
1319,48.0,-323.0,87.0,-691.0,251.0,184.0,164.0,-1187.0,444.0,3
1320,40.0,-319.0,86.0,-333.0,274.0,185.0,128.0,-1173.0,439.0,3
1321,29.0,-306.0,86.0,60.0,326.0,144.0,79.0,-1129.0,435.0,3
1322,16.0,-291.0,84.0,465.0,393.0,96.0,35.0,-1064.0,410.0,3
1323,7.0,-264.0,73.0,847.0,457.0,44.0,6.0,-981.0,361.0,3
1324,-1.0,-230.0,48.0,1160.0,508.0,2.0,-24.0,-875.0,280.0,3
1325,-12.0,-195.0,15.0,1364.0,550.0,-3.0,-60.0,-777.0,176.0,3
1326,-23.0,-160.0,-22.0,1427.0,570.0,37.0,-98.0,-688.0,29.0,3
1327,-42.0,-128.0,-51.0,1334.0,562.0,127.0,-154.0,-553.0,-74.0,3
1328,-45.0,-90.0,-72.0,1137.0,513.0,244.0,-183.0,-433.0,-173.0,3
1329,-46.0,-66.0,-80.0,836.0,455.0,347.0,-189.0,-306.0,-248.0,3
1330,-55.0,-30.0,-96.0,595.0,390.0,414.0,-209.0,-175.0,-316.0,3
1331,-54.0,-4.0,-109.0,373.0,321.0,453.0,-218.0,-36.0,-365.0,3
1332,-61.0,22.0,-130.0,172.0,245.0,470.0,-236.0,53.0,-427.0,3
1333,-58.0,34.0,-141.0,-22.0,173.0,478.0,-220.0,92.0,-487.0,3
1334,-55.0,46.0,-139.0,-208.0,110.0,472.0,-208.0,138.0,-481.0,3
1335,-50.0,46.0,-143.0,-366.0,58.0,423.0,-206.0,144.0,-481.0,3
1336,-54.0,31.0,-136.0,-526.0,27.0,373.0,-226.0,102.0,-473.0,3
1337,-54.0,10.0,-111.0,-687.0,6.0,347.0,-220.0,27.0,-390.0,3
1338,-57.0,-5.0,-92.0,-795.0,-2.0,330.0,-236.0,-43.0,-266.0,3
1339,-64.0,-33.0,-57.0,-803.0,6.0,320.0,-254.0,-122.0,-157.0,3
1340,-67.0,-60.0,-25.0,-707.0,16.0,334.0,-270.0,-196.0,-32.0,3
1341,-68.0,-78.0,-6.0,-496.0,25.0,349.0,-284.0,-255.0,62.0,3
1342,-73.0,-89.0,10.0,-187.0,35.0,360.0,-287.0,-296.0,121.0,3
1343,-70.0,-86.0,7.0,241.0,40.0,353.0,-283.0,-297.0,127.0,3
1344,-65.0,-80.0,-13.0,591.0,53.0,348.0,-285.0,-278.0,39.0,3
1345,-48.0,-71.0,-64.0,910.0,88.0,346.0,-211.0,-269.0,-152.0,3
1346,-24.0,-59.0,-123.0,1132.0,166.0,342.0,-130.0,-226.0,-381.0,3
1347,-7.0,-50.0,-171.0,1242.0,279.0,319.0,-53.0,-205.0,-608.0,3
1348,14.0,-43.0,-220.0,1274.0,407.0,288.0,21.0,-186.0,-793.0,3
1349,24.0,-61.0,-244.0,1335.0,523.0,257.0,58.0,-216.0,-899.0,3
1350,15.0,-87.0,-241.0,1514.0,609.0,244.0,27.0,-311.0,-881.0,3
1351,-3.0,-121.0,-214.0,1803.0,665.0,214.0,-23.0,-422.0,-778.0,3
1352,-13.0,-145.0,-173.0,2160.0,695.0,143.0,-66.0,-514.0,-612.0,3
1353,-15.0,-159.0,-116.0,2559.0,673.0,49.0,-68.0,-575.0,-396.0,3
1354,-6.0,-175.0,-77.0,2936.0,569.0,-46.0,-1.0,-660.0,-235.0,3
1355,22.0,-192.0,-60.0,3121.0,340.0,-173.0,96.0,-785.0,-168.0,3
1356,44.0,-201.0,-63.0,2913.0,-34.0,-375.0,212.0,-908.0,-179.0,3
1357,78.0,-223.0,-80.0,2013.0,-569.0,-591.0,315.0,-1046.0,-228.0,3
1358,100.0,-258.0,-66.0,857.0,-905.0,-866.0,360.0,-1158.0,-185.0,3
1359,96.0,-289.0,-63.0,-259.0,-1011.0,-1126.0,295.0,-1242.0,-158.0,3
1360,77.0,-302.0,-111.0,-1122.0,-856.0,-1262.0,223.0,-1264.0,-336.0,3
1361,43.0,-310.0,-145.0,-1865.0,-598.0,-1281.0,123.0,-1332.0,-478.0,3
1362,10.0,-375.0,-181.0,-2669.0,-410.0,-1247.0,-10.0,-1567.0,-617.0,3
1363,-14.0,-531.0,-232.0,-3564.0,-234.0,-1344.0,-159.0,-2102.0,-800.0,3
1364,-60.0,-713.0,-246.0,-4445.0,72.0,-1605.0,-337.0,-2741.0,-877.0,3
1365,-111.0,-841.0,-200.0,-5136.0,456.0,-1809.0,-545.0,-3310.0,-679.0,3
1366,-158.0,-997.0,-91.0,-5413.0,743.0,-1716.0,-687.0,-3780.0,-254.0,3
1367,-151.0,-1117.0,9.0,-5061.0,802.0,-1339.0,-618.0,-4100.0,118.0,3
1368,-116.0,-1137.0,78.0,-4030.0,614.0,-902.0,-473.0,-4117.0,370.0,3
1369,-59.0,-1054.0,100.0,-2432.0,267.0,-520.0,-257.0,-3825.0,481.0,3
1370,-17.0,-921.0,89.0,-595.0,-69.0,-162.0,-124.0,-3404.0,452.0,3
1371,-2.0,-770.0,69.0,1092.0,-300.0,90.0,-66.0,-2927.0,386.0,3
1372,12.0,-612.0,52.0,2568.0,-335.0,350.0,-19.0,-2440.0,303.0,3
1373,14.0,-457.0,46.0,3231.0,-276.0,577.0,9.0,-1795.0,277.0,3
1374,11.0,-347.0,44.0,3437.0,-179.0,737.0,9.0,-1298.0,287.0,3
1375,5.0,-218.0,58.0,3315.0,-111.0,808.0,2.0,-851.0,326.0,3
1376,-7.0,-118.0,69.0,2984.0,-110.0,827.0,-15.0,-509.0,368.0,3
1377,-13.0,-58.0,78.0,2534.0,-192.0,840.0,-45.0,-303.0,384.0,3
1378,-16.0,-29.0,72.0,2021.0,-340.0,875.0,-65.0,-193.0,378.0,3
1379,-18.0,-20.0,62.0,1469.0,-511.0,920.0,-65.0,-157.0,339.0,3
1380,-6.0,-23.0,42.0,902.0,-658.0,973.0,-32.0,-172.0,255.0,3
1381,9.0,-42.0,10.0,332.0,-738.0,1008.0,6.0,-217.0,162.0,3
1382,20.0,-60.0,-12.0,-221.0,-726.0,1034.0,45.0,-295.0,73.0,3
1383,26.0,-79.0,-24.0,-722.0,-638.0,1062.0,76.0,-381.0,11.0,3
1384,30.0,-110.0,-27.0,-1139.0,-507.0,1102.0,75.0,-476.0,0.0,3
1385,20.0,-146.0,-9.0,-1446.0,-337.0,1137.0,38.0,-583.0,43.0,3
1386,11.0,-185.0,11.0,-1661.0,-227.0,1142.0,22.0,-732.0,144.0,3
1387,7.0,-218.0,36.0,-1734.0,-170.0,1094.0,20.0,-851.0,231.0,3
1388,8.0,-249.0,64.0,-1713.0,-153.0,1018.0,15.0,-928.0,331.0,3
1389,11.0,-271.0,92.0,-1600.0,-148.0,938.0,25.0,-1019.0,440.0,3
1390,17.0,-290.0,118.0,-1394.0,-142.0,879.0,50.0,-1076.0,543.0,3
1391,24.0,-308.0,134.0,-1090.0,-121.0,830.0,66.0,-1128.0,616.0,3
1392,30.0,-317.0,141.0,-720.0,-85.0,782.0,83.0,-1158.0,650.0,3
1393,27.0,-318.0,132.0,-319.0,-60.0,722.0,85.0,-1177.0,606.0,3
1394,25.0,-317.0,109.0,56.0,-52.0,664.0,80.0,-1186.0,518.0,3
1395,14.0,-306.0,74.0,364.0,-56.0,589.0,30.0,-1151.0,394.0,3
1396,3.0,-287.0,44.0,601.0,-64.0,516.0,-4.0,-1099.0,273.0,3
1397,-2.0,-265.0,14.0,771.0,-66.0,438.0,-26.0,-1025.0,163.0,3
1398,-9.0,-245.0,-7.0,890.0,-57.0,356.0,-47.0,-928.0,75.0,3
1399,-11.0,-219.0,-31.0,972.0,-39.0,248.0,-64.0,-857.0,-7.0,3
1400,-10.0,-196.0,-50.0,1010.0,-32.0,154.0,-56.0,-777.0,-103.0,3
1401,-7.0,-181.0,-67.0,971.0,-53.0,44.0,-42.0,-721.0,-167.0,3
1402,-5.0,-162.0,-73.0,867.0,-92.0,-68.0,-18.0,-661.0,-224.0,3
1403,3.0,-143.0,-85.0,716.0,-145.0,-185.0,8.0,-586.0,-266.0,3
1404,7.0,-128.0,-97.0,547.0,-203.0,-299.0,32.0,-521.0,-301.0,3
1405,17.0,-113.0,-104.0,381.0,-244.0,-410.0,56.0,-469.0,-312.0,3
1406,21.0,-103.0,-101.0,233.0,-263.0,-501.0,62.0,-434.0,-332.0,3
1407,26.0,-95.0,-102.0,106.0,-251.0,-577.0,88.0,-403.0,-312.0,3
1408,35.0,-89.0,-90.0,9.0,-218.0,-627.0,118.0,-371.0,-274.0,3
1409,40.0,-81.0,-75.0,-61.0,-172.0,-672.0,134.0,-343.0,-229.0,3
1410,46.0,-71.0,-59.0,-101.0,-119.0,-706.0,153.0,-306.0,-158.0,3
1411,52.0,-64.0,-45.0,-102.0,-63.0,-725.0,180.0,-258.0,-95.0,3
1412,52.0,-60.0,-37.0,-69.0,-7.0,-729.0,184.0,-230.0,-58.0,3
1413,45.0,-54.0,-33.0,-13.0,46.0,-744.0,170.0,-211.0,-40.0,3
1414,43.0,-52.0,-28.0,58.0,94.0,-763.0,156.0,-194.0,-42.0,3
1415,35.0,-50.0,-51.0,168.0,107.0,-794.0,133.0,-187.0,-107.0,3
1416,20.0,-54.0,-79.0,275.0,86.0,-825.0,79.0,-198.0,-220.0,3
1417,-7.0,-53.0,-113.0,385.0,24.0,-859.0,-13.0,-214.0,-357.0,3
1418,-22.0,-65.0,-167.0,490.0,-74.0,-875.0,-75.0,-246.0,-548.0,3
1419,-37.0,-84.0,-207.0,623.0,-190.0,-888.0,-141.0,-296.0,-721.0,3
1420,-55.0,-104.0,-216.0,844.0,-249.0,-891.0,-242.0,-371.0,-786.0,3
1421,-77.0,-131.0,-200.0,1177.0,-241.0,-881.0,-313.0,-450.0,-727.0,3
1422,-81.0,-144.0,-169.0,1579.0,-237.0,-847.0,-331.0,-520.0,-602.0,3
1423,-67.0,-143.0,-146.0,1955.0,-284.0,-792.0,-277.0,-546.0,-493.0,3
1424,-41.0,-128.0,-113.0,2187.0,-343.0,-701.0,-183.0,-530.0,-382.0,3
1425,-25.0,-113.0,-86.0,2238.0,-344.0,-610.0,-140.0,-486.0,-270.0,3
1426,-50.0,-113.0,-85.0,2106.0,-224.0,-527.0,-219.0,-495.0,-224.0,3
1427,-101.0,-132.0,-83.0,1767.0,-14.0,-437.0,-390.0,-593.0,-230.0,3
1428,-112.0,-157.0,-76.0,1259.0,248.0,-214.0,-485.0,-690.0,-200.0,3
1429,-116.0,-172.0,-73.0,589.0,428.0,67.0,-474.0,-775.0,-206.0,3
1430,-107.0,-175.0,-79.0,22.0,574.0,370.0,-441.0,-795.0,-234.0,3
1431,-90.0,-178.0,-65.0,-621.0,683.0,647.0,-370.0,-812.0,-171.0,3
1432,-61.0,-207.0,-17.0,-1313.0,765.0,871.0,-257.0,-900.0,23.0,3
1433,-29.0,-258.0,10.0,-1905.0,795.0,1026.0,-118.0,-1058.0,149.0,3
1434,-10.0,-338.0,-35.0,-2352.0,702.0,1185.0,-12.0,-1358.0,-10.0,3
1435,4.0,-448.0,-87.0,-2772.0,463.0,1400.0,29.0,-1745.0,-236.0,3
1436,35.0,-559.0,-118.0,-3176.0,146.0,1685.0,117.0,-2147.0,-350.0,3
1437,65.0,-666.0,-99.0,-3532.0,-117.0,1885.0,203.0,-2533.0,-338.0,3
1438,89.0,-746.0,-57.0,-3782.0,-247.0,1943.0,299.0,-2857.0,-137.0,3
1439,102.0,-830.0,14.0,-3771.0,-291.0,1856.0,343.0,-3117.0,128.0,3
1440,73.0,-884.0,66.0,-3380.0,-318.0,1677.0,247.0,-3247.0,331.0,3
1441,20.0,-901.0,74.0,-2575.0,-339.0,1454.0,60.0,-3295.0,384.0,3
1442,-38.0,-871.0,63.0,-1480.0,-308.0,1129.0,-223.0,-3165.0,341.0,3
1443,-67.0,-802.0,43.0,-119.0,-255.0,799.0,-322.0,-2946.0,268.0,3
1444,-68.0,-712.0,21.0,797.0,-212.0,435.0,-296.0,-2679.0,188.0,3
1445,-46.0,-613.0,2.0,1383.0,-190.0,41.0,-227.0,-2366.0,105.0,3
1446,-27.0,-512.0,-14.0,1606.0,-177.0,-358.0,-156.0,-2035.0,41.0,3
1447,-6.0,-441.0,-25.0,1509.0,-159.0,-718.0,-62.0,-1721.0,0.0,3
1448,17.0,-364.0,-23.0,1184.0,-106.0,-1027.0,23.0,-1450.0,3.0,3
1449,34.0,-298.0,-14.0,747.0,-10.0,-1292.0,89.0,-1210.0,29.0,3
1450,60.0,-240.0,-9.0,284.0,124.0,-1493.0,192.0,-1014.0,70.0,3
1451,81.0,-211.0,0.0,-165.0,299.0,-1627.0,258.0,-890.0,92.0,3
1452,67.0,-201.0,8.0,-575.0,511.0,-1662.0,228.0,-854.0,124.0,3
1453,58.0,-217.0,23.0,-893.0,714.0,-1597.0,204.0,-874.0,175.0,3
1454,55.0,-231.0,42.0,-1095.0,848.0,-1473.0,198.0,-909.0,233.0,3
1455,53.0,-252.0,52.0,-1181.0,893.0,-1334.0,205.0,-951.0,279.0,3
1456,51.0,-260.0,56.0,-1168.0,846.0,-1164.0,184.0,-1020.0,307.0,3
1457,43.0,-277.0,61.0,-1069.0,759.0,-1023.0,151.0,-1074.0,310.0,3
1458,37.0,-289.0,65.0,-943.0,641.0,-873.0,140.0,-1113.0,327.0,3
1459,36.0,-296.0,68.0,-771.0,514.0,-729.0,138.0,-1117.0,348.0,3
1460,41.0,-291.0,70.0,-543.0,401.0,-597.0,142.0,-1098.0,357.0,3
1461,50.0,-282.0,70.0,-283.0,314.0,-494.0,180.0,-1076.0,355.0,3
1462,56.0,-272.0,71.0,-30.0,262.0,-416.0,201.0,-1032.0,359.0,3
1463,53.0,-257.0,68.0,215.0,237.0,-373.0,207.0,-979.0,356.0,3
1464,51.0,-240.0,62.0,449.0,223.0,-344.0,190.0,-913.0,339.0,3
1465,45.0,-215.0,56.0,670.0,219.0,-323.0,163.0,-839.0,305.0,3
1466,38.0,-197.0,46.0,860.0,224.0,-297.0,129.0,-754.0,272.0,3
1467,32.0,-175.0,34.0,1002.0,244.0,-272.0,100.0,-677.0,232.0,3
1468,24.0,-141.0,31.0,1100.0,275.0,-235.0,87.0,-566.0,207.0,3
1469,21.0,-113.0,14.0,1174.0,315.0,-208.0,65.0,-460.0,147.0,3
1470,13.0,-86.0,-7.0,1199.0,352.0,-180.0,48.0,-352.0,70.0,3
1471,4.0,-66.0,-36.0,1115.0,377.0,-134.0,-5.0,-308.0,-31.0,3
1472,-2.0,-57.0,-62.0,906.0,395.0,-3.0,-19.0,-292.0,-145.0,3
1473,-8.0,-55.0,-79.0,591.0,402.0,189.0,-36.0,-284.0,-224.0,3
1474,-14.0,-53.0,-85.0,258.0,399.0,404.0,-69.0,-260.0,-252.0,3
1475,-22.0,-54.0,-88.0,-8.0,386.0,580.0,-106.0,-227.0,-266.0,3
1476,-38.0,-40.0,-90.0,-167.0,368.0,696.0,-148.0,-187.0,-263.0,3
1477,-50.0,-29.0,-91.0,-238.0,345.0,759.0,-192.0,-129.0,-272.0,3
1478,-58.0,-19.0,-93.0,-263.0,320.0,795.0,-234.0,-93.0,-291.0,3
1479,-68.0,-7.0,-96.0,-285.0,289.0,807.0,-264.0,-51.0,-287.0,3
1480,-68.0,-4.0,-90.0,-312.0,252.0,799.0,-270.0,-26.0,-284.0,3
1481,-75.0,-6.0,-86.0,-347.0,206.0,748.0,-287.0,-32.0,-268.0,3
1482,-76.0,-11.0,-72.0,-375.0,155.0,681.0,-299.0,-45.0,-224.0,3
1483,-75.0,-32.0,-56.0,-362.0,101.0,616.0,-287.0,-94.0,-146.0,3
1484,-74.0,-43.0,-48.0,-284.0,34.0,561.0,-273.0,-162.0,-90.0,3
1485,-68.0,-57.0,-33.0,-98.0,-13.0,534.0,-260.0,-202.0,-31.0,3
1486,-64.0,-72.0,-26.0,136.0,-51.0,518.0,-255.0,-258.0,-14.0,3
1487,-59.0,-86.0,-36.0,411.0,-74.0,505.0,-246.0,-296.0,-45.0,3
1488,-43.0,-94.0,-59.0,701.0,-71.0,497.0,-203.0,-336.0,-134.0,3
1489,-29.0,-96.0,-101.0,964.0,-35.0,482.0,-144.0,-363.0,-304.0,3
1490,-16.0,-97.0,-155.0,1159.0,28.0,458.0,-104.0,-374.0,-491.0,3
1491,-10.0,-109.0,-186.0,1319.0,106.0,420.0,-68.0,-398.0,-639.0,3
1492,-4.0,-117.0,-192.0,1519.0,181.0,385.0,-46.0,-416.0,-688.0,3
1493,1.0,-127.0,-184.0,1796.0,239.0,355.0,-20.0,-459.0,-646.0,3
1494,2.0,-139.0,-163.0,2126.0,295.0,312.0,-18.0,-499.0,-566.0,3
1495,-8.0,-153.0,-129.0,2477.0,351.0,231.0,-41.0,-543.0,-431.0,3
1496,-1.0,-159.0,-86.0,2837.0,388.0,150.0,-25.0,-575.0,-272.0,3
1497,19.0,-175.0,-58.0,3160.0,362.0,55.0,59.0,-681.0,-147.0,3
1498,37.0,-204.0,-85.0,3302.0,194.0,-121.0,174.0,-871.0,-246.0,3
1499,52.0,-228.0,-132.0,2885.0,-44.0,-383.0,214.0,-1061.0,-433.0,3
1500,57.0,-236.0,-166.0,1956.0,-277.0,-713.0,216.0,-1128.0,-587.0,3
1501,46.0,-222.0,-162.0,688.0,-397.0,-1013.0,141.0,-1061.0,-581.0,3
1502,33.0,-208.0,-128.0,-600.0,-377.0,-1164.0,80.0,-956.0,-407.0,3
1503,12.0,-218.0,-119.0,-1676.0,-265.0,-1180.0,22.0,-977.0,-385.0,3
1504,-4.0,-259.0,-154.0,-2623.0,-203.0,-1182.0,-22.0,-1153.0,-515.0,3
1505,-13.0,-352.0,-204.0,-3598.0,-253.0,-1287.0,-75.0,-1493.0,-693.0,3
1506,-38.0,-472.0,-245.0,-4548.0,-289.0,-1486.0,-215.0,-1893.0,-860.0,3
1507,-71.0,-611.0,-259.0,-5322.0,-167.0,-1652.0,-355.0,-2356.0,-925.0,3
1508,-100.0,-770.0,-207.0,-5807.0,100.0,-1658.0,-483.0,-2840.0,-757.0,3
1509,-114.0,-930.0,-93.0,-5879.0,400.0,-1520.0,-517.0,-3367.0,-390.0,3
1510,-105.0,-1067.0,13.0,-5419.0,619.0,-1296.0,-510.0,-3801.0,54.0,3
1511,-83.0,-1130.0,75.0,-4392.0,668.0,-1035.0,-372.0,-4114.0,424.0,3
1512,-39.0,-1129.0,117.0,-2858.0,490.0,-746.0,-129.0,-4029.0,543.0,3
1513,11.0,-1026.0,118.0,-623.0,233.0,-545.0,30.0,-3647.0,554.0,3
1514,31.0,-868.0,95.0,1196.0,-25.0,-370.0,94.0,-3143.0,452.0,3
1515,41.0,-700.0,62.0,2629.0,-209.0,-182.0,113.0,-2600.0,336.0,3
1516,24.0,-525.0,35.0,3496.0,-278.0,34.0,59.0,-2043.0,249.0,3
1517,25.0,-370.0,24.0,3811.0,-257.0,283.0,58.0,-1530.0,204.0,3
1518,29.0,-243.0,28.0,3721.0,-197.0,510.0,83.0,-1080.0,208.0,3
1519,32.0,-140.0,44.0,3389.0,-142.0,678.0,107.0,-677.0,260.0,3
1520,38.0,-79.0,61.0,2974.0,-114.0,813.0,140.0,-365.0,310.0,3
1521,34.0,-26.0,59.0,2536.0,-141.0,916.0,140.0,-177.0,328.0,3
1522,22.0,-4.0,48.0,2070.0,-220.0,994.0,99.0,-105.0,277.0,3
1523,11.0,-3.0,28.0,1523.0,-326.0,1053.0,52.0,-113.0,206.0,3
1524,3.0,-18.0,8.0,879.0,-410.0,1111.0,7.0,-174.0,131.0,3
1525,-4.0,-45.0,-8.0,181.0,-441.0,1183.0,-18.0,-283.0,64.0,3
1526,-4.0,-78.0,-12.0,-498.0,-388.0,1246.0,-34.0,-384.0,54.0,3
1527,-2.0,-114.0,-5.0,-1204.0,-294.0,1307.0,-36.0,-492.0,77.0,3
1528,-10.0,-159.0,11.0,-1654.0,-185.0,1357.0,-49.0,-639.0,125.0,3
1529,-7.0,-189.0,30.0,-1961.0,-95.0,1345.0,-44.0,-762.0,205.0,3
1530,-6.0,-225.0,55.0,-2124.0,-41.0,1294.0,-29.0,-883.0,301.0,3
1531,-2.0,-260.0,80.0,-2134.0,-17.0,1197.0,-14.0,-972.0,424.0,3
1532,-6.0,-283.0,109.0,-1985.0,-15.0,1080.0,-39.0,-1047.0,522.0,3
1533,-4.0,-302.0,125.0,-1703.0,-8.0,974.0,-44.0,-1097.0,601.0,3
1534,-6.0,-307.0,142.0,-1311.0,16.0,892.0,-34.0,-1115.0,658.0,3
1535,-2.0,-299.0,142.0,-849.0,53.0,818.0,-20.0,-1099.0,666.0,3
1536,-3.0,-285.0,132.0,-369.0,91.0,761.0,-29.0,-1057.0,626.0,3
1537,-9.0,-263.0,104.0,64.0,118.0,705.0,-53.0,-1002.0,545.0,3
1538,-13.0,-248.0,84.0,415.0,136.0,641.0,-72.0,-924.0,433.0,3
1539,-27.0,-227.0,61.0,663.0,136.0,550.0,-108.0,-845.0,288.0,3
1540,-34.0,-213.0,32.0,855.0,105.0,477.0,-148.0,-802.0,201.0,3
1541,-38.0,-196.0,7.0,970.0,60.0,392.0,-164.0,-750.0,126.0,3
1542,-44.0,-183.0,-13.0,1049.0,0.0,294.0,-172.0,-700.0,60.0,3
1543,-43.0,-165.0,-22.0,1095.0,-70.0,198.0,-169.0,-651.0,-1.0,3
1544,-39.0,-145.0,-42.0,1087.0,-145.0,109.0,-150.0,-601.0,-57.0,3
1545,-27.0,-133.0,-49.0,1010.0,-220.0,13.0,-121.0,-550.0,-100.0,3
1546,-17.0,-113.0,-56.0,851.0,-292.0,-98.0,-92.0,-487.0,-130.0,3
1547,-11.0,-94.0,-58.0,631.0,-366.0,-213.0,-65.0,-418.0,-159.0,3
1548,-11.0,-82.0,-72.0,382.0,-431.0,-314.0,-52.0,-357.0,-186.0,3
1549,-6.0,-68.0,-78.0,128.0,-478.0,-413.0,-33.0,-309.0,-224.0,3
1550,-5.0,-66.0,-88.0,-110.0,-502.0,-495.0,-34.0,-288.0,-255.0,3
1551,2.0,-65.0,-92.0,-305.0,-499.0,-566.0,-5.0,-271.0,-278.0,3
1552,13.0,-69.0,-97.0,-432.0,-476.0,-624.0,21.0,-278.0,-291.0,3
1553,22.0,-74.0,-97.0,-495.0,-425.0,-686.0,55.0,-299.0,-298.0,3
1554,29.0,-83.0,-98.0,-512.0,-360.0,-726.0,85.0,-327.0,-305.0,3
1555,34.0,-87.0,-94.0,-498.0,-276.0,-767.0,106.0,-339.0,-300.0,3
1556,36.0,-91.0,-104.0,-458.0,-178.0,-803.0,111.0,-352.0,-326.0,3
1557,37.0,-95.0,-112.0,-394.0,-80.0,-843.0,119.0,-366.0,-370.0,3
1558,34.0,-97.0,-126.0,-297.0,-5.0,-892.0,101.0,-366.0,-418.0,3
1559,19.0,-98.0,-154.0,-153.0,28.0,-949.0,59.0,-358.0,-522.0,3
1560,5.0,-106.0,-189.0,32.0,1.0,-994.0,26.0,-379.0,-656.0,3
1561,-8.0,-116.0,-211.0,267.0,-63.0,-1019.0,-32.0,-418.0,-747.0,3
1562,-29.0,-133.0,-213.0,568.0,-119.0,-1006.0,-117.0,-471.0,-780.0,3
1563,-39.0,-158.0,-192.0,945.0,-165.0,-962.0,-160.0,-561.0,-715.0,3
1564,-40.0,-177.0,-157.0,1381.0,-228.0,-895.0,-168.0,-642.0,-589.0,3
1565,-24.0,-190.0,-124.0,1814.0,-298.0,-802.0,-127.0,-690.0,-453.0,3
1566,-23.0,-185.0,-97.0,2158.0,-332.0,-695.0,-113.0,-709.0,-265.0,3
1567,-28.0,-174.0,-63.0,2362.0,-250.0,-576.0,-174.0,-719.0,-135.0,3
1568,-61.0,-174.0,-57.0,2318.0,-73.0,-468.0,-290.0,-760.0,-133.0,3
1569,-96.0,-183.0,-62.0,1961.0,142.0,-324.0,-432.0,-810.0,-155.0,3
1570,-121.0,-190.0,-59.0,1399.0,338.0,-105.0,-502.0,-831.0,-149.0,3
1571,-88.0,-192.0,-60.0,814.0,488.0,185.0,-378.0,-832.0,-160.0,3
1572,-62.0,-182.0,-69.0,252.0,564.0,458.0,-261.0,-804.0,-208.0,3
1573,-25.0,-189.0,-68.0,-319.0,558.0,689.0,-138.0,-804.0,-209.0,3
1574,25.0,-221.0,-61.0,-881.0,484.0,908.0,72.0,-913.0,-154.0,3
1575,66.0,-268.0,-65.0,-1381.0,316.0,1151.0,286.0,-1130.0,-171.0,3
1576,107.0,-357.0,-106.0,-1788.0,57.0,1442.0,415.0,-1446.0,-322.0,3
1577,141.0,-449.0,-138.0,-2123.0,-161.0,1720.0,505.0,-1766.0,-455.0,3
1578,172.0,-527.0,-120.0,-2380.0,-193.0,1897.0,594.0,-2039.0,-395.0,3
1579,152.0,-601.0,-63.0,-2520.0,-26.0,1931.0,537.0,-2277.0,-210.0,3
1580,92.0,-666.0,23.0,-2508.0,217.0,1890.0,341.0,-2489.0,181.0,3
1581,25.0,-729.0,86.0,-2284.0,364.0,1785.0,74.0,-2730.0,443.0,3
1582,-26.0,-770.0,123.0,-1717.0,301.0,1639.0,-118.0,-2833.0,560.0,3
1583,-64.0,-763.0,130.0,-1057.0,143.0,1416.0,-265.0,-2815.0,592.0,3
1584,-72.0,-724.0,122.0,-321.0,-6.0,1141.0,-311.0,-2639.0,578.0,3
1585,-74.0,-651.0,103.0,384.0,-78.0,862.0,-327.0,-2405.0,491.0,3
1586,-70.0,-579.0,72.0,971.0,-76.0,587.0,-309.0,-2158.0,382.0,3
1587,-61.0,-504.0,37.0,1363.0,-32.0,307.0,-281.0,-1925.0,248.0,3
1588,-50.0,-437.0,6.0,1490.0,28.0,1.0,-239.0,-1715.0,134.0,3
1589,-39.0,-381.0,-15.0,1339.0,75.0,-343.0,-180.0,-1552.0,48.0,3
1590,-12.0,-339.0,-32.0,940.0,109.0,-696.0,-95.0,-1416.0,-21.0,3
1591,2.0,-305.0,-40.0,392.0,181.0,-1035.0,-43.0,-1276.0,-44.0,3
1592,18.0,-272.0,-34.0,-194.0,331.0,-1314.0,3.0,-1158.0,-50.0,3
1593,34.0,-257.0,-28.0,-745.0,542.0,-1523.0,81.0,-1066.0,-10.0,3
1594,52.0,-247.0,-17.0,-1224.0,770.0,-1664.0,161.0,-1014.0,45.0,3
1595,62.0,-257.0,0.0,-1612.0,1010.0,-1682.0,206.0,-1037.0,95.0,3
1596,65.0,-274.0,13.0,-1943.0,1146.0,-1614.0,232.0,-1092.0,165.0,3
1597,68.0,-298.0,36.0,-2073.0,1210.0,-1507.0,240.0,-1150.0,219.0,3
1598,64.0,-317.0,50.0,-2052.0,1196.0,-1397.0,242.0,-1181.0,278.0,3
1599,64.0,-325.0,64.0,-1892.0,1116.0,-1277.0,252.0,-1223.0,323.0,3
1600,59.0,-333.0,62.0,-1633.0,979.0,-1148.0,232.0,-1255.0,333.0,3
1601,52.0,-347.0,63.0,-1322.0,798.0,-1015.0,215.0,-1280.0,326.0,3
1602,57.0,-344.0,62.0,-990.0,613.0,-882.0,219.0,-1293.0,322.0,3
1603,61.0,-347.0,60.0,-663.0,456.0,-758.0,231.0,-1302.0,321.0,3
1604,65.0,-346.0,66.0,-353.0,352.0,-639.0,241.0,-1295.0,340.0,3
1605,64.0,-332.0,71.0,-47.0,294.0,-537.0,230.0,-1266.0,363.0,3
1606,60.0,-323.0,73.0,254.0,273.0,-461.0,215.0,-1208.0,382.0,3
1607,51.0,-293.0,87.0,534.0,265.0,-409.0,179.0,-1118.0,415.0,3
1608,33.0,-255.0,80.0,806.0,259.0,-373.0,118.0,-985.0,401.0,3
1609,31.0,-224.0,71.0,1077.0,261.0,-353.0,91.0,-841.0,371.0,3
1610,20.0,-186.0,56.0,1238.0,271.0,-337.0,60.0,-722.0,319.0,3
1611,14.0,-160.0,37.0,1326.0,279.0,-312.0,25.0,-609.0,234.0,3
1612,-2.0,-125.0,10.0,1314.0,283.0,-274.0,-24.0,-518.0,119.0,3
1613,-11.0,-107.0,-18.0,1177.0,277.0,-201.0,-56.0,-461.0,15.0,3
1614,-12.0,-92.0,-40.0,914.0,267.0,-70.0,-60.0,-427.0,-75.0,3
1615,-14.0,-84.0,-55.0,569.0,266.0,98.0,-70.0,-400.0,-118.0,3
1616,-13.0,-85.0,-56.0,195.0,293.0,286.0,-81.0,-390.0,-135.0,3
1617,-12.0,-87.0,-52.0,-147.0,337.0,457.0,-70.0,-376.0,-109.0,3
1618,-29.0,-79.0,-41.0,-391.0,367.0,580.0,-110.0,-334.0,-74.0,3
1619,-44.0,-69.0,-40.0,-506.0,369.0,667.0,-170.0,-284.0,-72.0,3
1620,-58.0,-62.0,-56.0,-527.0,341.0,745.0,-219.0,-232.0,-106.0,3
1621,-64.0,-50.0,-56.0,-486.0,299.0,797.0,-242.0,-186.0,-129.0,3
1622,-71.0,-37.0,-61.0,-388.0,251.0,812.0,-275.0,-127.0,-163.0,3
1623,-70.0,-20.0,-72.0,-219.0,201.0,807.0,-263.0,-78.0,-210.0,3
1624,-62.0,-14.0,-83.0,-79.0,165.0,773.0,-247.0,-39.0,-247.0,3
1625,-60.0,-3.0,-88.0,60.0,131.0,710.0,-235.0,3.0,-267.0,3
1626,-59.0,9.0,-94.0,177.0,97.0,635.0,-235.0,41.0,-284.0,3
1627,-63.0,11.0,-103.0,254.0,61.0,566.0,-246.0,38.0,-309.0,3
1628,-73.0,4.0,-100.0,279.0,28.0,514.0,-280.0,18.0,-320.0,3
1629,-75.0,-15.0,-90.0,271.0,-7.0,496.0,-290.0,-49.0,-294.0,3
1630,-69.0,-37.0,-99.0,286.0,-44.0,480.0,-279.0,-154.0,-303.0,3
1631,-60.0,-62.0,-107.0,337.0,-68.0,467.0,-252.0,-223.0,-322.0,3
1632,-42.0,-75.0,-130.0,461.0,-55.0,467.0,-190.0,-286.0,-430.0,3
1633,-23.0,-92.0,-177.0,622.0,4.0,470.0,-121.0,-342.0,-601.0,3
1634,-13.0,-100.0,-206.0,798.0,100.0,465.0,-99.0,-364.0,-727.0,3
1635,-2.0,-109.0,-224.0,1036.0,215.0,447.0,-51.0,-376.0,-794.0,3
1636,2.0,-118.0,-220.0,1350.0,336.0,413.0,-23.0,-416.0,-796.0,3
1637,4.0,-133.0,-213.0,1760.0,414.0,377.0,-15.0,-490.0,-779.0,3
1638,-2.0,-147.0,-196.0,2078.0,477.0,297.0,-22.0,-546.0,-705.0,3
1639,-4.0,-149.0,-165.0,2361.0,525.0,175.0,-22.0,-552.0,-567.0,3
1640,6.0,-149.0,-125.0,2620.0,525.0,46.0,34.0,-562.0,-410.0,3
1641,21.0,-153.0,-85.0,2788.0,423.0,-89.0,111.0,-616.0,-252.0,3
1642,39.0,-175.0,-74.0,2748.0,189.0,-269.0,196.0,-748.0,-210.0,3
1643,59.0,-201.0,-83.0,2346.0,-137.0,-508.0,242.0,-901.0,-233.0,3
1644,67.0,-224.0,-100.0,1565.0,-416.0,-818.0,255.0,-1029.0,-300.0,3
1645,55.0,-236.0,-98.0,552.0,-538.0,-1150.0,182.0,-1057.0,-307.0,3
1646,37.0,-241.0,-119.0,-445.0,-474.0,-1372.0,98.0,-1066.0,-365.0,3
1647,5.0,-249.0,-166.0,-1370.0,-283.0,-1483.0,-2.0,-1104.0,-534.0,3
1648,-12.0,-291.0,-210.0,-2366.0,-106.0,-1580.0,-100.0,-1278.0,-722.0,3
1649,-20.0,-418.0,-248.0,-3446.0,19.0,-1785.0,-158.0,-1719.0,-893.0,3
1650,-34.0,-566.0,-280.0,-4464.0,274.0,-2046.0,-233.0,-2367.0,-1025.0,3
1651,-67.0,-717.0,-256.0,-5455.0,583.0,-2190.0,-376.0,-2854.0,-895.0,3
1652,-104.0,-858.0,-154.0,-5902.0,852.0,-2080.0,-501.0,-3290.0,-504.0,3
1653,-69.0,-1000.0,-23.0,-5779.0,1002.0,-1703.0,-338.0,-3705.0,-1.0,3
1654,-8.0,-1099.0,90.0,-5021.0,1017.0,-1272.0,-72.0,-3998.0,399.0,3
1655,44.0,-1094.0,136.0,-3692.0,887.0,-921.0,115.0,-3958.0,612.0,3
1656,61.0,-995.0,141.0,-1985.0,641.0,-640.0,216.0,-3646.0,654.0,3
1657,55.0,-889.0,131.0,-227.0,374.0,-401.0,193.0,-3199.0,579.0,3
1658,44.0,-732.0,82.0,1259.0,165.0,-157.0,141.0,-2715.0,437.0,3
1659,46.0,-588.0,52.0,2242.0,30.0,134.0,134.0,-2251.0,296.0,3
1660,35.0,-446.0,32.0,2701.0,-51.0,403.0,110.0,-1783.0,235.0,3
1661,28.0,-319.0,24.0,2784.0,-111.0,593.0,81.0,-1324.0,207.0,3
1662,16.0,-206.0,37.0,2650.0,-154.0,691.0,51.0,-914.0,219.0,3
1663,4.0,-128.0,44.0,2420.0,-178.0,740.0,23.0,-597.0,252.0,3
1664,-8.0,-72.0,39.0,2146.0,-215.0,760.0,-13.0,-338.0,249.0,3
1665,-12.0,-45.0,35.0,1774.0,-273.0,799.0,-56.0,-234.0,212.0,3
1666,-23.0,-39.0,13.0,1407.0,-344.0,849.0,-91.0,-216.0,140.0,3
1667,-15.0,-43.0,-7.0,958.0,-396.0,913.0,-68.0,-269.0,60.0,3
1668,0.0,-58.0,-23.0,431.0,-403.0,960.0,-23.0,-320.0,-1.0,3
1669,5.0,-76.0,-29.0,-115.0,-350.0,997.0,5.0,-386.0,-29.0,3
1670,11.0,-106.0,-26.0,-623.0,-247.0,1025.0,23.0,-466.0,-15.0,3
1671,7.0,-135.0,-22.0,-1044.0,-115.0,1040.0,8.0,-553.0,25.0,3
1672,-3.0,-168.0,0.0,-1352.0,18.0,1050.0,-29.0,-671.0,79.0,3
1673,-4.0,-205.0,19.0,-1543.0,132.0,1055.0,-28.0,-787.0,151.0,3
1674,-3.0,-241.0,43.0,-1630.0,210.0,1014.0,-20.0,-896.0,227.0,3
1675,-5.0,-259.0,66.0,-1633.0,248.0,940.0,-32.0,-974.0,326.0,3
1676,-4.0,-279.0,87.0,-1547.0,259.0,864.0,-26.0,-1054.0,420.0,3
1677,5.0,-296.0,105.0,-1370.0,260.0,781.0,6.0,-1105.0,506.0,3
1678,9.0,-314.0,117.0,-1057.0,257.0,706.0,17.0,-1165.0,526.0,3
1679,-3.0,-315.0,108.0,-741.0,249.0,640.0,-17.0,-1167.0,510.0,3
1680,-11.0,-315.0,92.0,-417.0,218.0,590.0,-62.0,-1181.0,458.0,3
1681,-20.0,-313.0,76.0,-137.0,154.0,549.0,-87.0,-1176.0,393.0,3
1682,-27.0,-303.0,61.0,92.0,57.0,481.0,-119.0,-1148.0,326.0,3
1683,-37.0,-292.0,37.0,260.0,-49.0,391.0,-151.0,-1116.0,258.0,3
1684,-46.0,-277.0,19.0,378.0,-146.0,271.0,-189.0,-1053.0,180.0,3
1685,-45.0,-257.0,7.0,454.0,-219.0,140.0,-197.0,-982.0,104.0,3
1686,-43.0,-240.0,-19.0,499.0,-262.0,0.0,-184.0,-915.0,27.0,3
1687,-36.0,-214.0,-37.0,518.0,-272.0,-140.0,-161.0,-841.0,-53.0,3
1688,-32.0,-188.0,-56.0,518.0,-261.0,-281.0,-143.0,-758.0,-120.0,3
1689,-23.0,-158.0,-70.0,493.0,-234.0,-419.0,-118.0,-660.0,-180.0,3
1690,-16.0,-133.0,-81.0,445.0,-194.0,-556.0,-91.0,-546.0,-223.0,3
1691,-6.0,-105.0,-87.0,379.0,-127.0,-712.0,-63.0,-453.0,-258.0,3
1692,0.0,-71.0,-97.0,268.0,-44.0,-833.0,-35.0,-309.0,-275.0,3
1693,6.0,-43.0,-97.0,146.0,54.0,-922.0,-3.0,-206.0,-285.0,3
1694,11.0,-23.0,-96.0,9.0,162.0,-986.0,25.0,-122.0,-277.0,3
1695,14.0,-3.0,-92.0,-136.0,276.0,-1021.0,34.0,-48.0,-272.0,3
1696,20.0,7.0,-92.0,-284.0,386.0,-1034.0,53.0,4.0,-278.0,3
1697,25.0,18.0,-84.0,-439.0,486.0,-1031.0,73.0,35.0,-262.0,3
1698,25.0,19.0,-85.0,-567.0,575.0,-1025.0,85.0,50.0,-251.0,3
1699,31.0,13.0,-75.0,-672.0,655.0,-1012.0,107.0,43.0,-226.0,3
1700,32.0,9.0,-73.0,-737.0,714.0,-1021.0,108.0,31.0,-204.0,3
1701,36.0,-1.0,-68.0,-743.0,752.0,-1025.0,121.0,9.0,-192.0,3
1702,35.0,-12.0,-82.0,-687.0,764.0,-1025.0,131.0,-31.0,-224.0,3
1703,32.0,-21.0,-94.0,-581.0,749.0,-1023.0,130.0,-79.0,-286.0,3
1704,26.0,-34.0,-118.0,-418.0,702.0,-1022.0,109.0,-109.0,-369.0,3
1705,18.0,-27.0,-159.0,-214.0,603.0,-1008.0,83.0,-98.0,-575.0,3
1706,12.0,-20.0,-219.0,38.0,478.0,-1010.0,56.0,-62.0,-803.0,3
1707,1.0,-17.0,-277.0,248.0,358.0,-1013.0,1.0,-47.0,-1032.0,3
1708,-9.0,-35.0,-299.0,544.0,292.0,-1002.0,-51.0,-88.0,-1128.0,3
1709,-11.0,-77.0,-287.0,1012.0,258.0,-939.0,-41.0,-228.0,-1066.0,3
1710,2.0,-109.0,-249.0,1586.0,173.0,-829.0,12.0,-374.0,-939.0,3
1711,8.0,-120.0,-220.0,2074.0,11.0,-668.0,54.0,-476.0,-829.0,3
1712,1.0,-115.0,-199.0,2311.0,-172.0,-494.0,15.0,-501.0,-715.0,3
1713,-9.0,-96.0,-157.0,2211.0,-296.0,-330.0,-52.0,-461.0,-541.0,3
1714,-43.0,-76.0,-112.0,1786.0,-328.0,-215.0,-181.0,-427.0,-361.0,3
1715,-104.0,-76.0,-72.0,1122.0,-281.0,-125.0,-421.0,-417.0,-201.0,3
1716,-145.0,-110.0,-62.0,378.0,-157.0,45.0,-608.0,-511.0,-145.0,3
1717,-116.0,-182.0,-86.0,-282.0,44.0,371.0,-540.0,-750.0,-222.0,3
1718,-51.0,-249.0,-97.0,-874.0,261.0,840.0,-295.0,-1018.0,-303.0,3
1719,2.0,-295.0,-58.0,-1567.0,491.0,1197.0,-75.0,-1184.0,-144.0,3
1720,45.0,-348.0,9.0,-2052.0,621.0,1536.0,165.0,-1386.0,116.0,3
1721,72.0,-406.0,41.0,-2343.0,563.0,1897.0,334.0,-1641.0,242.0,3
1722,107.0,-528.0,-11.0,-2419.0,226.0,2249.0,455.0,-2111.0,-13.0,3
1723,124.0,-652.0,-119.0,-2487.0,-189.0,2502.0,446.0,-2573.0,-386.0,3
1724,126.0,-766.0,-133.0,-2652.0,-396.0,2598.0,420.0,-2976.0,-434.0,3
1725,86.0,-883.0,-62.0,-2754.0,-398.0,2521.0,278.0,-3335.0,-173.0,3
1726,10.0,-965.0,34.0,-2642.0,-395.0,2253.0,37.0,-3611.0,197.0,3
1727,-83.0,-999.0,97.0,-2232.0,-501.0,1898.0,-313.0,-3714.0,454.0,3
1728,-176.0,-971.0,97.0,-1522.0,-650.0,1572.0,-685.0,-3622.0,481.0,3
1729,-178.0,-896.0,77.0,-662.0,-727.0,1267.0,-764.0,-3363.0,423.0,3
1730,-156.0,-810.0,68.0,211.0,-723.0,906.0,-679.0,-2982.0,371.0,3
1731,-120.0,-691.0,47.0,990.0,-648.0,527.0,-542.0,-2586.0,281.0,3
1732,-85.0,-584.0,9.0,1559.0,-475.0,83.0,-421.0,-2242.0,156.0,3
1733,-56.0,-495.0,-16.0,1873.0,-288.0,-258.0,-290.0,-1883.0,35.0,3
1734,-17.0,-415.0,-32.0,1865.0,-115.0,-566.0,-111.0,-1603.0,-23.0,3
1735,21.0,-337.0,-41.0,1684.0,13.0,-817.0,52.0,-1350.0,-60.0,3
1736,55.0,-276.0,-44.0,1392.0,98.0,-1052.0,188.0,-1130.0,-88.0,3
1737,83.0,-211.0,-40.0,1036.0,155.0,-1218.0,283.0,-895.0,-60.0,3
1738,113.0,-174.0,-36.0,678.0,229.0,-1266.0,373.0,-748.0,-45.0,3
1739,101.0,-159.0,-26.0,350.0,354.0,-1234.0,346.0,-654.0,-18.0,3
1740,87.0,-150.0,-25.0,78.0,505.0,-1164.0,301.0,-633.0,-6.0,3
1741,78.0,-159.0,-16.0,-144.0,639.0,-1085.0,272.0,-651.0,37.0,3
1742,63.0,-176.0,-1.0,-348.0,748.0,-990.0,229.0,-724.0,89.0,3
1743,55.0,-207.0,8.0,-573.0,801.0,-820.0,219.0,-859.0,114.0,3
1744,48.0,-243.0,27.0,-807.0,769.0,-624.0,183.0,-957.0,177.0,3
1745,47.0,-266.0,50.0,-982.0,673.0,-423.0,183.0,-1033.0,257.0,3
1746,51.0,-275.0,62.0,-1049.0,491.0,-239.0,195.0,-1062.0,311.0,3
1747,48.0,-281.0,68.0,-993.0,315.0,-135.0,201.0,-1075.0,356.0,3
1748,52.0,-283.0,72.0,-874.0,152.0,-53.0,203.0,-1078.0,373.0,3
1749,52.0,-281.0,78.0,-728.0,28.0,29.0,203.0,-1084.0,405.0,3
1750,50.0,-283.0,85.0,-546.0,-59.0,99.0,185.0,-1071.0,431.0,3
1751,45.0,-274.0,84.0,-320.0,-118.0,166.0,165.0,-1035.0,425.0,3
1752,41.0,-267.0,72.0,-76.0,-144.0,219.0,130.0,-1003.0,386.0,3
1753,33.0,-249.0,67.0,164.0,-140.0,248.0,109.0,-934.0,348.0,3
1754,31.0,-228.0,40.0,403.0,-118.0,253.0,96.0,-863.0,270.0,3
1755,26.0,-212.0,9.0,601.0,-71.0,264.0,75.0,-825.0,153.0,3
1756,27.0,-205.0,-4.0,685.0,0.0,272.0,81.0,-812.0,81.0,3
1757,21.0,-212.0,-18.0,665.0,65.0,308.0,60.0,-837.0,21.0,3
1758,16.0,-211.0,-26.0,567.0,112.0,390.0,48.0,-847.0,-10.0,3
1759,5.0,-201.0,-28.0,449.0,125.0,513.0,17.0,-811.0,-19.0,3
1760,-12.0,-175.0,-30.0,371.0,76.0,628.0,-55.0,-701.0,-13.0,3
1761,-23.0,-150.0,-40.0,364.0,-1.0,759.0,-89.0,-572.0,-62.0,3
1762,-27.0,-115.0,-55.0,391.0,-87.0,836.0,-113.0,-449.0,-129.0,3
1763,-35.0,-85.0,-75.0,407.0,-176.0,873.0,-131.0,-349.0,-200.0,3
1764,-37.0,-60.0,-83.0,398.0,-272.0,877.0,-142.0,-263.0,-254.0,3
1765,-43.0,-45.0,-110.0,374.0,-365.0,870.0,-170.0,-191.0,-333.0,3
1766,-34.0,-18.0,-128.0,326.0,-438.0,866.0,-146.0,-105.0,-409.0,3
1767,-38.0,-15.0,-146.0,248.0,-473.0,822.0,-161.0,-94.0,-501.0,3
1768,-39.0,-16.0,-145.0,116.0,-487.0,753.0,-159.0,-100.0,-513.0,3
1769,-28.0,-30.0,-145.0,-10.0,-496.0,691.0,-128.0,-140.0,-503.0,3
1770,-18.0,-37.0,-138.0,-96.0,-496.0,615.0,-100.0,-157.0,-467.0,3
1771,-14.0,-43.0,-129.0,-125.0,-476.0,541.0,-72.0,-172.0,-425.0,3
1772,-12.0,-49.0,-121.0,-101.0,-439.0,469.0,-62.0,-194.0,-397.0,3
1773,-12.0,-65.0,-121.0,-51.0,-382.0,401.0,-63.0,-237.0,-396.0,3
1774,-7.0,-68.0,-118.0,31.0,-295.0,352.0,-55.0,-249.0,-386.0,3
1775,1.0,-70.0,-141.0,200.0,-221.0,317.0,-18.0,-272.0,-478.0,3
1776,6.0,-74.0,-178.0,354.0,-144.0,273.0,7.0,-290.0,-637.0,3
1777,8.0,-76.0,-223.0,495.0,-55.0,219.0,5.0,-294.0,-834.0,3
1778,4.0,-90.0,-255.0,682.0,44.0,152.0,-19.0,-329.0,-951.0,3
1779,-11.0,-103.0,-250.0,963.0,164.0,95.0,-69.0,-359.0,-927.0,3
1780,-13.0,-121.0,-223.0,1354.0,305.0,34.0,-97.0,-429.0,-803.0,3
1781,-13.0,-133.0,-182.0,1780.0,453.0,-30.0,-88.0,-478.0,-661.0,3
1782,-1.0,-133.0,-151.0,2156.0,590.0,-105.0,-42.0,-499.0,-522.0,3
1783,21.0,-131.0,-115.0,2440.0,700.0,-182.0,56.0,-512.0,-399.0,3
1784,44.0,-135.0,-103.0,2605.0,758.0,-296.0,149.0,-535.0,-310.0,3
1785,57.0,-133.0,-98.0,2611.0,752.0,-457.0,226.0,-576.0,-298.0,3
1786,73.0,-135.0,-107.0,2389.0,694.0,-663.0,278.0,-613.0,-344.0,3
1787,75.0,-140.0,-125.0,1922.0,604.0,-910.0,286.0,-661.0,-413.0,3
1788,63.0,-143.0,-117.0,1281.0,515.0,-1095.0,239.0,-664.0,-373.0,3
1789,52.0,-167.0,-96.0,545.0,463.0,-1219.0,180.0,-721.0,-296.0,3
1790,22.0,-208.0,-80.0,104.0,438.0,-1323.0,64.0,-848.0,-235.0,3
1791,-13.0,-254.0,-72.0,-176.0,435.0,-1398.0,-70.0,-1007.0,-188.0,3
1792,-34.0,-307.0,-82.0,-370.0,440.0,-1458.0,-166.0,-1209.0,-230.0,3
1793,-62.0,-373.0,-138.0,-627.0,464.0,-1543.0,-265.0,-1509.0,-406.0,3
1794,-80.0,-439.0,-159.0,-1082.0,532.0,-1649.0,-369.0,-1819.0,-547.0,3
1795,-83.0,-526.0,-174.0,-1721.0,654.0,-1727.0,-383.0,-2164.0,-588.0,3
1796,-86.0,-621.0,-134.0,-2494.0,806.0,-1782.0,-413.0,-2497.0,-470.0,3
1797,-98.0,-709.0,-78.0,-3251.0,934.0,-1702.0,-441.0,-2780.0,-235.0,3
1798,-90.0,-790.0,-16.0,-3762.0,977.0,-1418.0,-389.0,-3016.0,-2.0,3
1799,-69.0,-856.0,37.0,-3848.0,851.0,-1019.0,-282.0,-3189.0,198.0,3
1800,-30.0,-873.0,75.0,-3408.0,525.0,-635.0,-138.0,-3213.0,358.0,3
1801,-12.0,-836.0,80.0,-2500.0,123.0,-263.0,-56.0,-3095.0,417.0,3
1802,-13.0,-773.0,73.0,-1120.0,-242.0,-19.0,-66.0,-2891.0,391.0,3
1803,-27.0,-688.0,67.0,-17.0,-411.0,176.0,-133.0,-2561.0,349.0,3
1804,-48.0,-617.0,55.0,894.0,-503.0,348.0,-241.0,-2248.0,303.0,3
1805,-75.0,-523.0,41.0,1565.0,-558.0,531.0,-333.0,-1951.0,245.0,3
1806,-90.0,-434.0,25.0,1995.0,-586.0,680.0,-385.0,-1642.0,191.0,3
1807,-102.0,-340.0,17.0,2196.0,-606.0,756.0,-414.0,-1319.0,162.0,3
1808,-96.0,-257.0,7.0,2209.0,-630.0,772.0,-394.0,-1032.0,117.0,3
1809,-84.0,-192.0,-6.0,2068.0,-654.0,777.0,-352.0,-816.0,70.0,3
1810,-76.0,-149.0,-16.0,1804.0,-680.0,782.0,-304.0,-667.0,30.0,3
1811,-65.0,-127.0,-24.0,1438.0,-707.0,800.0,-257.0,-577.0,15.0,3
1812,-49.0,-117.0,-20.0,991.0,-728.0,804.0,-216.0,-536.0,7.0,3
1813,-39.0,-118.0,-26.0,487.0,-725.0,797.0,-173.0,-536.0,-4.0,3
1814,-31.0,-129.0,-25.0,-25.0,-686.0,769.0,-150.0,-563.0,-11.0,3
1815,-29.0,-148.0,-26.0,-493.0,-580.0,745.0,-140.0,-629.0,-8.0,3
1816,-21.0,-168.0,-20.0,-942.0,-464.0,732.0,-117.0,-679.0,24.0,3
1817,-12.0,-190.0,-5.0,-1183.0,-343.0,748.0,-83.0,-746.0,79.0,3
1818,-12.0,-212.0,13.0,-1308.0,-232.0,762.0,-71.0,-830.0,146.0,3
1819,-12.0,-240.0,40.0,-1370.0,-157.0,734.0,-55.0,-926.0,235.0,3
1820,-12.0,-262.0,70.0,-1386.0,-130.0,645.0,-60.0,-992.0,349.0,3
1821,-13.0,-278.0,102.0,-1326.0,-132.0,566.0,-71.0,-1044.0,476.0,3
1822,-11.0,-293.0,117.0,-1169.0,-144.0,510.0,-50.0,-1098.0,570.0,3
1823,-2.0,-304.0,140.0,-928.0,-151.0,466.0,-18.0,-1130.0,634.0,3
1824,2.0,-304.0,145.0,-617.0,-158.0,415.0,-12.0,-1133.0,656.0,3
1825,-2.0,-300.0,136.0,-274.0,-174.0,381.0,-15.0,-1111.0,625.0,3
1826,1.0,-291.0,123.0,71.0,-194.0,370.0,-10.0,-1084.0,573.0,3
1827,3.0,-280.0,104.0,383.0,-228.0,365.0,4.0,-1054.0,502.0,3
1828,3.0,-261.0,77.0,639.0,-274.0,331.0,9.0,-1002.0,423.0,3
1829,7.0,-245.0,56.0,835.0,-344.0,296.0,19.0,-946.0,339.0,3
1830,9.0,-220.0,36.0,989.0,-393.0,246.0,27.0,-872.0,226.0,3
1831,15.0,-203.0,16.0,1047.0,-433.0,191.0,41.0,-788.0,144.0,3
1832,20.0,-182.0,-5.0,1047.0,-460.0,130.0,58.0,-703.0,58.0,3
1833,28.0,-156.0,-33.0,989.0,-476.0,71.0,74.0,-625.0,-37.0,3
1834,29.0,-129.0,-54.0,861.0,-486.0,5.0,103.0,-532.0,-118.0,3
1835,33.0,-106.0,-72.0,672.0,-495.0,-68.0,107.0,-458.0,-192.0,3
1836,36.0,-78.0,-79.0,428.0,-496.0,-142.0,124.0,-374.0,-235.0,3
1837,46.0,-68.0,-87.0,160.0,-488.0,-216.0,156.0,-314.0,-252.0,3
1838,46.0,-56.0,-91.0,-105.0,-471.0,-309.0,158.0,-265.0,-264.0,3
1839,48.0,-52.0,-92.0,-331.0,-436.0,-397.0,151.0,-225.0,-270.0,3
1840,46.0,-47.0,-88.0,-502.0,-390.0,-479.0,148.0,-213.0,-272.0,3
1841,42.0,-51.0,-86.0,-604.0,-337.0,-558.0,143.0,-211.0,-249.0,3
1842,41.0,-54.0,-83.0,-639.0,-282.0,-645.0,135.0,-217.0,-243.0,3
1843,35.0,-62.0,-83.0,-613.0,-210.0,-708.0,124.0,-228.0,-220.0,3
1844,37.0,-64.0,-68.0,-540.0,-140.0,-766.0,116.0,-226.0,-183.0,3
1845,38.0,-59.0,-57.0,-429.0,-68.0,-807.0,115.0,-214.0,-141.0,3
1846,35.0,-52.0,-50.0,-289.0,8.0,-835.0,111.0,-192.0,-107.0,3
1847,32.0,-44.0,-47.0,-119.0,89.0,-842.0,105.0,-164.0,-95.0,3
1848,34.0,-44.0,-52.0,61.0,162.0,-847.0,110.0,-158.0,-104.0,3
1849,27.0,-41.0,-58.0,241.0,215.0,-861.0,98.0,-154.0,-155.0,3
1850,12.0,-40.0,-82.0,404.0,237.0,-893.0,47.0,-145.0,-247.0,3
1851,-11.0,-32.0,-117.0,545.0,208.0,-925.0,-26.0,-142.0,-384.0,3
1852,-27.0,-41.0,-172.0,643.0,114.0,-950.0,-92.0,-149.0,-586.0,3
1853,-36.0,-55.0,-216.0,731.0,-23.0,-955.0,-133.0,-197.0,-758.0,3
1854,-55.0,-79.0,-235.0,883.0,-148.0,-957.0,-211.0,-265.0,-845.0,3
1855,-78.0,-111.0,-221.0,1179.0,-243.0,-942.0,-280.0,-357.0,-829.0,3
1856,-79.0,-143.0,-203.0,1609.0,-391.0,-874.0,-303.0,-474.0,-749.0,3
1857,-68.0,-159.0,-178.0,2158.0,-573.0,-766.0,-274.0,-579.0,-668.0,3
1858,-54.0,-159.0,-145.0,2514.0,-732.0,-621.0,-214.0,-612.0,-470.0,3
1859,-43.0,-155.0,-98.0,2753.0,-786.0,-470.0,-208.0,-605.0,-287.0,3
1860,-65.0,-141.0,-77.0,2810.0,-701.0,-350.0,-305.0,-590.0,-199.0,3
1861,-108.0,-122.0,-76.0,2577.0,-495.0,-224.0,-488.0,-588.0,-212.0,3
1862,-146.0,-123.0,-82.0,1973.0,-223.0,-11.0,-636.0,-633.0,-233.0,3
1863,-155.0,-144.0,-64.0,1112.0,73.0,323.0,-662.0,-697.0,-175.0,3
1864,-111.0,-179.0,-54.0,253.0,363.0,715.0,-492.0,-796.0,-129.0,3
1865,-65.0,-215.0,-34.0,-518.0,573.0,1008.0,-276.0,-910.0,-56.0,3
1866,-59.0,-248.0,-3.0,-1200.0,616.0,1116.0,-223.0,-1016.0,54.0,3
1867,-57.0,-304.0,-2.0,-1771.0,498.0,1187.0,-204.0,-1185.0,112.0,3
1868,-39.0,-370.0,-33.0,-2273.0,221.0,1383.0,-112.0,-1504.0,-39.0,3
1869,12.0,-480.0,-102.0,-2770.0,-195.0,1741.0,60.0,-1910.0,-303.0,3
1870,54.0,-589.0,-150.0,-3273.0,-597.0,1987.0,177.0,-2323.0,-491.0,3
1871,94.0,-718.0,-116.0,-3869.0,-681.0,2167.0,287.0,-2757.0,-406.0,3
1872,116.0,-840.0,-22.0,-4166.0,-599.0,2229.0,367.0,-3211.0,45.0,3
1873,110.0,-929.0,79.0,-4016.0,-508.0,2149.0,371.0,-3447.0,393.0,3
1874,53.0,-975.0,116.0,-3299.0,-492.0,1957.0,171.0,-3539.0,539.0,3
1875,-24.0,-964.0,103.0,-2123.0,-506.0,1701.0,-120.0,-3494.0,510.0,3
1876,-82.0,-897.0,83.0,-718.0,-511.0,1368.0,-347.0,-3281.0,432.0,3
1877,-97.0,-818.0,63.0,656.0,-535.0,996.0,-429.0,-2959.0,322.0,3
1878,-87.0,-703.0,17.0,1730.0,-578.0,638.0,-381.0,-2605.0,164.0,3
1879,-54.0,-588.0,-15.0,2326.0,-616.0,283.0,-259.0,-2265.0,42.0,3
1880,-24.0,-484.0,-40.0,2434.0,-601.0,-128.0,-147.0,-1937.0,-55.0,3
1881,1.0,-396.0,-46.0,2162.0,-516.0,-550.0,-54.0,-1630.0,-83.0,3
1882,25.0,-328.0,-46.0,1669.0,-358.0,-944.0,24.0,-1381.0,-92.0,3
1883,44.0,-268.0,-34.0,1090.0,-156.0,-1310.0,107.0,-1157.0,-61.0,3
