,acc1_x,acc1_y,acc1_z,gyro_x,gyro_y,gyro_z,acc2_x,acc2_y,acc2_z,label
0,5.0,-225.0,-122.0,-11.0,68.0,-4.0,21.0,-900.0,-412.0,3
1,7.0,-222.0,-122.0,-9.0,68.0,-2.0,22.0,-900.0,-408.0,3
2,9.0,-227.0,-124.0,-9.0,68.0,-4.0,21.0,-900.0,-413.0,3
3,7.0,-226.0,-123.0,-8.0,68.0,-2.0,23.0,-898.0,-412.0,3
4,13.0,-227.0,-126.0,-9.0,68.0,-4.0,21.0,-896.0,-405.0,3
5,10.0,-226.0,-121.0,-11.0,68.0,-2.0,27.0,-895.0,-406.0,3
6,7.0,-224.0,-125.0,-11.0,69.0,-3.0,23.0,-901.0,-407.0,3
7,11.0,-229.0,-119.0,-12.0,69.0,0.0,22.0,-900.0,-408.0,3
8,7.0,-227.0,-122.0,-11.0,70.0,-2.0,23.0,-898.0,-409.0,3
9,8.0,-225.0,-118.0,-12.0,71.0,0.0,22.0,-899.0,-412.0,3
10,12.0,-229.0,-120.0,-12.0,72.0,-1.0,22.0,-898.0,-406.0,3
11,10.0,-228.0,-122.0,-12.0,75.0,2.0,19.0,-896.0,-409.0,3
12,8.0,-225.0,-124.0,-10.0,76.0,-1.0,20.0,-898.0,-409.0,3
13,10.0,-227.0,-119.0,-8.0,77.0,3.0,18.0,-898.0,-405.0,3
14,7.0,-223.0,-120.0,-5.0,78.0,-1.0,20.0,-896.0,-414.0,3
15,8.0,-222.0,-122.0,-2.0,80.0,2.0,20.0,-895.0,-411.0,3
16,5.0,-223.0,-118.0,1.0,80.0,-1.0,19.0,-895.0,-404.0,3
17,9.0,-225.0,-123.0,-1.0,80.0,1.0,20.0,-891.0,-409.0,3
18,10.0,-224.0,-123.0,-2.0,80.0,0.0,24.0,-893.0,-408.0,3
19,11.0,-224.0,-122.0,-4.0,82.0,2.0,21.0,-892.0,-403.0,3
20,9.0,-226.0,-121.0,-9.0,81.0,-1.0,23.0,-895.0,-406.0,3
21,10.0,-225.0,-119.0,-12.0,83.0,3.0,31.0,-894.0,-409.0,3
22,9.0,-226.0,-120.0,-15.0,84.0,-1.0,22.0,-898.0,-401.0,3
23,9.0,-228.0,-121.0,-17.0,85.0,2.0,22.0,-897.0,-409.0,3
24,8.0,-226.0,-118.0,-20.0,85.0,0.0,21.0,-902.0,-407.0,3
25,9.0,-226.0,-119.0,-21.0,88.0,3.0,21.0,-899.0,-404.0,3
26,13.0,-226.0,-121.0,-22.0,88.0,2.0,22.0,-900.0,-409.0,3
27,9.0,-225.0,-122.0,-23.0,90.0,5.0,25.0,-900.0,-406.0,3
28,10.0,-227.0,-121.0,-23.0,91.0,2.0,25.0,-906.0,-405.0,3
29,10.0,-228.0,-119.0,-23.0,94.0,6.0,24.0,-901.0,-408.0,3
30,8.0,-229.0,-122.0,-23.0,94.0,3.0,20.0,-902.0,-409.0,3
31,10.0,-226.0,-118.0,-23.0,96.0,6.0,22.0,-901.0,-409.0,3
32,11.0,-228.0,-124.0,-24.0,95.0,5.0,21.0,-902.0,-406.0,3
33,9.0,-231.0,-120.0,-24.0,95.0,8.0,24.0,-899.0,-409.0,3
34,8.0,-224.0,-123.0,-25.0,97.0,7.0,22.0,-899.0,-409.0,3
35,8.0,-224.0,-121.0,-27.0,98.0,9.0,23.0,-899.0,-407.0,3
36,9.0,-225.0,-123.0,-28.0,99.0,8.0,22.0,-897.0,-411.0,3
37,9.0,-226.0,-120.0,-28.0,100.0,10.0,22.0,-902.0,-409.0,3
38,9.0,-226.0,-121.0,-27.0,100.0,8.0,16.0,-898.0,-407.0,3
39,10.0,-225.0,-120.0,-25.0,102.0,11.0,21.0,-895.0,-404.0,3
40,7.0,-225.0,-120.0,-23.0,102.0,11.0,20.0,-895.0,-407.0,3
41,7.0,-224.0,-119.0,-19.0,101.0,14.0,21.0,-891.0,-403.0,3
42,8.0,-223.0,-120.0,-17.0,101.0,12.0,19.0,-889.0,-403.0,3
43,9.0,-223.0,-120.0,-19.0,102.0,15.0,21.0,-891.0,-407.0,3
44,9.0,-222.0,-120.0,-22.0,104.0,13.0,18.0,-890.0,-408.0,3
45,5.0,-223.0,-120.0,-26.0,106.0,15.0,15.0,-890.0,-410.0,3
46,8.0,-222.0,-119.0,-32.0,105.0,12.0,18.0,-888.0,-405.0,3
47,10.0,-224.0,-118.0,-37.0,104.0,15.0,17.0,-884.0,-404.0,3
48,10.0,-225.0,-118.0,-41.0,101.0,12.0,18.0,-888.0,-398.0,3
49,9.0,-225.0,-116.0,-43.0,99.0,12.0,21.0,-891.0,-398.0,3
50,9.0,-227.0,-121.0,-46.0,98.0,10.0,20.0,-893.0,-400.0,3
51,10.0,-224.0,-123.0,-50.0,98.0,10.0,17.0,-895.0,-404.0,3
52,10.0,-228.0,-120.0,-59.0,100.0,5.0,15.0,-896.0,-408.0,3
53,5.0,-227.0,-120.0,-66.0,101.0,7.0,18.0,-899.0,-406.0,3
54,7.0,-228.0,-121.0,-75.0,100.0,4.0,18.0,-899.0,-405.0,3
55,8.0,-228.0,-118.0,-79.0,103.0,6.0,16.0,-903.0,-412.0,3
56,7.0,-228.0,-119.0,-80.0,106.0,3.0,15.0,-900.0,-404.0,3
57,8.0,-228.0,-121.0,-73.0,108.0,5.0,15.0,-905.0,-403.0,3
58,8.0,-227.0,-125.0,-65.0,110.0,3.0,14.0,-907.0,-402.0,3
59,7.0,-229.0,-117.0,-52.0,113.0,4.0,10.0,-903.0,-403.0,3
60,8.0,-229.0,-121.0,-41.0,113.0,3.0,13.0,-904.0,-399.0,3
61,9.0,-226.0,-119.0,-33.0,113.0,4.0,16.0,-898.0,-403.0,3
62,7.0,-223.0,-118.0,-29.0,117.0,1.0,11.0,-899.0,-402.0,3
63,6.0,-225.0,-120.0,-31.0,118.0,2.0,16.0,-897.0,-403.0,3
64,5.0,-226.0,-119.0,-42.0,117.0,0.0,16.0,-893.0,-403.0,3
65,6.0,-225.0,-121.0,-57.0,118.0,-1.0,15.0,-898.0,-402.0,3
66,10.0,-228.0,-115.0,-74.0,120.0,-4.0,14.0,-899.0,-396.0,3
67,8.0,-228.0,-119.0,-88.0,121.0,-3.0,15.0,-901.0,-398.0,3
68,7.0,-227.0,-119.0,-99.0,124.0,-5.0,14.0,-906.0,-391.0,3
69,5.0,-231.0,-120.0,-104.0,126.0,-3.0,15.0,-917.0,-389.0,3
70,9.0,-229.0,-118.0,-104.0,129.0,-6.0,15.0,-918.0,-393.0,3
71,6.0,-234.0,-118.0,-101.0,130.0,-4.0,14.0,-916.0,-396.0,3
72,8.0,-234.0,-117.0,-97.0,133.0,-7.0,19.0,-923.0,-385.0,3
73,6.0,-233.0,-121.0,-91.0,135.0,-5.0,11.0,-924.0,-388.0,3
74,6.0,-233.0,-115.0,-83.0,136.0,-6.0,16.0,-925.0,-389.0,3
75,7.0,-233.0,-117.0,-73.0,136.0,-4.0,11.0,-923.0,-384.0,3
76,9.0,-235.0,-118.0,-63.0,135.0,-3.0,12.0,-922.0,-387.0,3
77,7.0,-233.0,-119.0,-50.0,133.0,-1.0,10.0,-920.0,-391.0,3
78,6.0,-230.0,-118.0,-39.0,134.0,0.0,15.0,-914.0,-396.0,3
79,10.0,-233.0,-117.0,-26.0,135.0,3.0,10.0,-913.0,-396.0,3
80,7.0,-231.0,-122.0,-16.0,135.0,4.0,13.0,-912.0,-404.0,3
81,7.0,-227.0,-119.0,-8.0,133.0,7.0,11.0,-909.0,-396.0,3
82,5.0,-230.0,-114.0,-3.0,129.0,6.0,8.0,-907.0,-392.0,3
83,3.0,-226.0,-117.0,-1.0,124.0,9.0,11.0,-902.0,-391.0,3
84,3.0,-225.0,-117.0,-5.0,120.0,8.0,11.0,-897.0,-387.0,3
85,5.0,-221.0,-118.0,-13.0,119.0,9.0,11.0,-888.0,-388.0,3
86,9.0,-224.0,-116.0,-24.0,119.0,8.0,16.0,-885.0,-388.0,3
87,4.0,-223.0,-116.0,-39.0,123.0,9.0,11.0,-888.0,-394.0,3
88,9.0,-223.0,-117.0,-54.0,126.0,8.0,20.0,-888.0,-389.0,3
89,9.0,-224.0,-119.0,-72.0,126.0,9.0,20.0,-894.0,-395.0,3
90,8.0,-225.0,-118.0,-93.0,126.0,9.0,17.0,-896.0,-394.0,3
91,6.0,-225.0,-117.0,-114.0,124.0,7.0,17.0,-896.0,-403.0,3
92,8.0,-228.0,-116.0,-135.0,124.0,6.0,17.0,-906.0,-404.0,3
93,6.0,-228.0,-124.0,-157.0,121.0,6.0,13.0,-906.0,-411.0,3
94,6.0,-230.0,-121.0,-170.0,120.0,3.0,16.0,-909.0,-420.0,3
95,9.0,-232.0,-127.0,-181.0,117.0,2.0,15.0,-916.0,-423.0,3
96,5.0,-230.0,-128.0,-190.0,114.0,0.0,8.0,-918.0,-431.0,3
97,7.0,-233.0,-128.0,-190.0,110.0,1.0,8.0,-921.0,-436.0,3
98,4.0,-235.0,-130.0,-185.0,104.0,-3.0,6.0,-921.0,-441.0,3
99,4.0,-234.0,-129.0,-169.0,98.0,-3.0,8.0,-922.0,-438.0,3
100,4.0,-232.0,-129.0,-145.0,93.0,-7.0,-1.0,-918.0,-435.0,3
101,3.0,-232.0,-129.0,-115.0,89.0,-8.0,-2.0,-910.0,-441.0,3
102,2.0,-226.0,-132.0,-81.0,84.0,-9.0,-2.0,-899.0,-433.0,3
103,3.0,-228.0,-125.0,-49.0,81.0,-11.0,-4.0,-893.0,-434.0,3
104,2.0,-224.0,-127.0,-21.0,77.0,-11.0,-5.0,-881.0,-423.0,3
105,-1.0,-218.0,-124.0,-3.0,72.0,-12.0,-6.0,-874.0,-427.0,3
106,3.0,-218.0,-129.0,6.0,66.0,-13.0,2.0,-864.0,-425.0,3
107,5.0,-214.0,-126.0,2.0,63.0,-13.0,2.0,-861.0,-427.0,3
108,6.0,-211.0,-124.0,-8.0,63.0,-15.0,0.0,-849.0,-422.0,3
109,6.0,-211.0,-120.0,-23.0,65.0,-14.0,6.0,-853.0,-419.0,3
110,6.0,-210.0,-126.0,-39.0,69.0,-14.0,7.0,-846.0,-420.0,3
111,5.0,-209.0,-121.0,-56.0,72.0,-17.0,10.0,-842.0,-417.0,3
112,4.0,-210.0,-121.0,-72.0,72.0,-20.0,13.0,-846.0,-419.0,3
113,4.0,-209.0,-124.0,-87.0,73.0,-24.0,10.0,-843.0,-418.0,3
114,5.0,-211.0,-124.0,-103.0,72.0,-27.0,14.0,-846.0,-423.0,3
115,7.0,-212.0,-126.0,-122.0,69.0,-31.0,17.0,-844.0,-421.0,3
116,8.0,-210.0,-123.0,-137.0,67.0,-33.0,15.0,-847.0,-424.0,3
117,7.0,-212.0,-125.0,-153.0,68.0,-37.0,16.0,-842.0,-423.0,3
118,8.0,-210.0,-126.0,-170.0,69.0,-40.0,13.0,-846.0,-424.0,3
119,8.0,-211.0,-125.0,-189.0,70.0,-43.0,16.0,-845.0,-424.0,3
120,7.0,-212.0,-128.0,-203.0,71.0,-45.0,14.0,-849.0,-427.0,3
121,5.0,-213.0,-123.0,-217.0,70.0,-49.0,12.0,-850.0,-423.0,3
122,8.0,-212.0,-123.0,-229.0,70.0,-52.0,11.0,-852.0,-420.0,3
123,5.0,-214.0,-124.0,-240.0,70.0,-57.0,9.0,-854.0,-422.0,3
124,3.0,-215.0,-124.0,-249.0,68.0,-62.0,8.0,-855.0,-420.0,3
125,4.0,-214.0,-123.0,-259.0,67.0,-69.0,4.0,-854.0,-421.0,3
126,3.0,-215.0,-124.0,-265.0,66.0,-75.0,1.0,-857.0,-422.0,3
127,4.0,-218.0,-129.0,-269.0,64.0,-81.0,0.0,-872.0,-423.0,3
128,3.0,-219.0,-124.0,-272.0,64.0,-87.0,-3.0,-872.0,-427.0,3
129,-1.0,-221.0,-128.0,-275.0,61.0,-95.0,-1.0,-882.0,-425.0,3
130,-1.0,-222.0,-125.0,-277.0,58.0,-100.0,-2.0,-880.0,-422.0,3
131,-1.0,-226.0,-126.0,-282.0,53.0,-108.0,-1.0,-896.0,-427.0,3
132,2.0,-232.0,-126.0,-288.0,46.0,-115.0,-4.0,-908.0,-425.0,3
133,-1.0,-230.0,-128.0,-291.0,41.0,-121.0,-8.0,-914.0,-427.0,3
134,0.0,-234.0,-130.0,-290.0,39.0,-124.0,-9.0,-921.0,-436.0,3
135,4.0,-242.0,-127.0,-279.0,36.0,-128.0,-13.0,-927.0,-432.0,3
136,1.0,-238.0,-125.0,-258.0,39.0,-130.0,-7.0,-934.0,-431.0,3
137,-2.0,-239.0,-127.0,-229.0,41.0,-133.0,-9.0,-938.0,-432.0,3
138,4.0,-242.0,-128.0,-191.0,43.0,-133.0,-12.0,-939.0,-425.0,3
139,3.0,-240.0,-125.0,-145.0,43.0,-135.0,-13.0,-939.0,-423.0,3
140,1.0,-239.0,-123.0,-97.0,43.0,-132.0,-13.0,-940.0,-417.0,3
141,3.0,-237.0,-122.0,-54.0,42.0,-133.0,-5.0,-930.0,-409.0,3
142,1.0,-233.0,-120.0,-18.0,40.0,-129.0,-1.0,-931.0,-410.0,3
143,1.0,-232.0,-121.0,6.0,34.0,-126.0,4.0,-923.0,-403.0,3
144,3.0,-230.0,-119.0,14.0,30.0,-120.0,3.0,-919.0,-402.0,3
145,8.0,-233.0,-122.0,15.0,26.0,-118.0,9.0,-923.0,-402.0,3
146,6.0,-231.0,-121.0,0.0,22.0,-114.0,11.0,-918.0,-400.0,3
147,10.0,-233.0,-121.0,-14.0,20.0,-112.0,16.0,-919.0,-400.0,3
148,6.0,-232.0,-119.0,-29.0,17.0,-108.0,15.0,-921.0,-399.0,3
149,7.0,-230.0,-121.0,-37.0,15.0,-106.0,15.0,-920.0,-403.0,3
150,6.0,-232.0,-121.0,-37.0,10.0,-100.0,18.0,-916.0,-398.0,3
151,8.0,-235.0,-121.0,-29.0,4.0,-99.0,11.0,-916.0,-402.0,3
152,6.0,-231.0,-116.0,-14.0,-3.0,-94.0,12.0,-912.0,-401.0,3
153,5.0,-231.0,-120.0,6.0,-10.0,-94.0,10.0,-909.0,-403.0,3
154,7.0,-232.0,-117.0,26.0,-16.0,-90.0,6.0,-908.0,-402.0,3
155,1.0,-224.0,-120.0,42.0,-23.0,-90.0,6.0,-903.0,-401.0,3
156,2.0,-225.0,-120.0,52.0,-27.0,-88.0,7.0,-898.0,-400.0,3
157,6.0,-228.0,-120.0,57.0,-27.0,-90.0,7.0,-903.0,-398.0,3
158,6.0,-227.0,-117.0,56.0,-26.0,-87.0,6.0,-897.0,-399.0,3
159,5.0,-226.0,-119.0,48.0,-22.0,-89.0,4.0,-898.0,-402.0,3
160,4.0,-227.0,-119.0,32.0,-16.0,-88.0,3.0,-906.0,-398.0,3
161,4.0,-226.0,-116.0,17.0,-13.0,-89.0,9.0,-908.0,-392.0,3
162,6.0,-232.0,-116.0,0.0,-14.0,-89.0,9.0,-918.0,-391.0,3
163,5.0,-231.0,-115.0,-10.0,-17.0,-91.0,5.0,-921.0,-385.0,3
164,1.0,-231.0,-113.0,-16.0,-26.0,-91.0,5.0,-922.0,-384.0,3
165,1.0,-235.0,-111.0,-17.0,-38.0,-96.0,1.0,-931.0,-377.0,3
166,1.0,-239.0,-116.0,-12.0,-50.0,-96.0,0.0,-925.0,-372.0,3
167,4.0,-236.0,-113.0,-3.0,-56.0,-101.0,1.0,-926.0,-378.0,3
168,3.0,-236.0,-114.0,9.0,-60.0,-101.0,4.0,-929.0,-381.0,3
169,3.0,-237.0,-113.0,21.0,-58.0,-107.0,0.0,-930.0,-377.0,3
170,5.0,-235.0,-115.0,29.0,-53.0,-108.0,5.0,-925.0,-380.0,3
171,1.0,-235.0,-117.0,38.0,-44.0,-115.0,5.0,-920.0,-384.0,3
172,2.0,-234.0,-116.0,44.0,-34.0,-115.0,1.0,-920.0,-387.0,3
173,3.0,-232.0,-114.0,49.0,-23.0,-119.0,1.0,-915.0,-388.0,3
174,0.0,-230.0,-117.0,54.0,-14.0,-120.0,-4.0,-909.0,-389.0,3
175,3.0,-229.0,-116.0,56.0,-9.0,-122.0,-7.0,-902.0,-383.0,3
176,3.0,-225.0,-118.0,60.0,-6.0,-122.0,-3.0,-892.0,-382.0,3
177,3.0,-223.0,-114.0,63.0,-3.0,-127.0,5.0,-884.0,-378.0,3
178,4.0,-224.0,-114.0,60.0,-6.0,-129.0,9.0,-883.0,-383.0,3
179,10.0,-221.0,-120.0,49.0,-10.0,-133.0,9.0,-873.0,-385.0,3
180,8.0,-217.0,-116.0,36.0,-12.0,-137.0,17.0,-868.0,-387.0,3
181,6.0,-215.0,-116.0,16.0,-17.0,-144.0,9.0,-866.0,-389.0,3
182,4.0,-217.0,-119.0,-6.0,-22.0,-144.0,6.0,-865.0,-399.0,3
183,3.0,-216.0,-119.0,-28.0,-29.0,-149.0,13.0,-866.0,-392.0,3
184,11.0,-217.0,-114.0,-46.0,-33.0,-149.0,25.0,-868.0,-386.0,3
185,6.0,-219.0,-117.0,-55.0,-34.0,-155.0,16.0,-866.0,-385.0,3
186,5.0,-216.0,-116.0,-60.0,-37.0,-151.0,14.0,-867.0,-385.0,3
187,5.0,-217.0,-116.0,-66.0,-42.0,-154.0,18.0,-873.0,-383.0,3
188,11.0,-223.0,-117.0,-72.0,-51.0,-149.0,22.0,-879.0,-383.0,3
189,8.0,-222.0,-115.0,-80.0,-62.0,-149.0,26.0,-885.0,-387.0,3
190,7.0,-224.0,-116.0,-91.0,-72.0,-146.0,20.0,-892.0,-392.0,3
191,3.0,-222.0,-121.0,-102.0,-85.0,-148.0,7.0,-893.0,-399.0,3
192,6.0,-229.0,-123.0,-114.0,-105.0,-142.0,10.0,-900.0,-412.0,3
193,5.0,-227.0,-125.0,-123.0,-121.0,-143.0,10.0,-901.0,-421.0,3
194,3.0,-229.0,-128.0,-122.0,-132.0,-135.0,1.0,-909.0,-432.0,3
195,3.0,-233.0,-127.0,-114.0,-140.0,-130.0,1.0,-917.0,-436.0,3
196,4.0,-234.0,-128.0,-94.0,-147.0,-120.0,3.0,-915.0,-438.0,3
197,9.0,-236.0,-130.0,-68.0,-156.0,-118.0,14.0,-919.0,-438.0,3
198,6.0,-231.0,-130.0,-34.0,-164.0,-113.0,21.0,-916.0,-430.0,3
199,9.0,-232.0,-128.0,-4.0,-169.0,-110.0,20.0,-909.0,-427.0,3
200,7.0,-227.0,-125.0,25.0,-172.0,-106.0,21.0,-901.0,-428.0,3
201,11.0,-226.0,-125.0,42.0,-185.0,-110.0,22.0,-895.0,-426.0,3
202,8.0,-224.0,-123.0,48.0,-196.0,-107.0,21.0,-891.0,-423.0,3
203,10.0,-222.0,-123.0,48.0,-204.0,-106.0,26.0,-882.0,-421.0,3
204,13.0,-218.0,-124.0,44.0,-209.0,-105.0,31.0,-873.0,-415.0,3
205,12.0,-215.0,-120.0,40.0,-216.0,-111.0,40.0,-866.0,-411.0,3
206,12.0,-215.0,-123.0,33.0,-216.0,-106.0,38.0,-861.0,-413.0,3
207,15.0,-214.0,-118.0,17.0,-215.0,-103.0,44.0,-858.0,-409.0,3
208,17.0,-212.0,-124.0,-1.0,-212.0,-101.0,50.0,-863.0,-414.0,3
209,18.0,-212.0,-123.0,-22.0,-210.0,-105.0,55.0,-856.0,-418.0,3
210,14.0,-215.0,-128.0,-50.0,-207.0,-105.0,63.0,-855.0,-422.0,3
211,22.0,-214.0,-126.0,-78.0,-203.0,-114.0,69.0,-857.0,-426.0,3
212,22.0,-213.0,-124.0,-100.0,-200.0,-123.0,77.0,-860.0,-422.0,3
213,22.0,-217.0,-123.0,-115.0,-197.0,-135.0,80.0,-863.0,-415.0,3
214,27.0,-213.0,-128.0,-122.0,-197.0,-144.0,95.0,-858.0,-413.0,3
215,25.0,-212.0,-125.0,-123.0,-198.0,-160.0,96.0,-857.0,-420.0,3
216,27.0,-212.0,-125.0,-124.0,-196.0,-169.0,96.0,-853.0,-419.0,3
217,28.0,-213.0,-131.0,-124.0,-191.0,-186.0,98.0,-848.0,-423.0,3
218,29.0,-210.0,-124.0,-121.0,-183.0,-199.0,98.0,-843.0,-426.0,3
219,30.0,-212.0,-124.0,-120.0,-173.0,-214.0,102.0,-855.0,-427.0,3
220,32.0,-215.0,-127.0,-123.0,-163.0,-224.0,104.0,-863.0,-429.0,3
221,32.0,-215.0,-127.0,-130.0,-155.0,-238.0,108.0,-871.0,-425.0,3
222,28.0,-219.0,-123.0,-144.0,-148.0,-246.0,114.0,-876.0,-421.0,3
223,34.0,-220.0,-125.0,-162.0,-141.0,-258.0,117.0,-884.0,-420.0,3
224,34.0,-223.0,-122.0,-182.0,-130.0,-264.0,118.0,-893.0,-418.0,3
225,32.0,-225.0,-121.0,-199.0,-117.0,-275.0,117.0,-900.0,-410.0,3
226,35.0,-228.0,-119.0,-213.0,-107.0,-279.0,117.0,-904.0,-405.0,3
227,37.0,-228.0,-122.0,-215.0,-98.0,-288.0,115.0,-906.0,-395.0,3
228,36.0,-229.0,-119.0,-209.0,-98.0,-290.0,117.0,-906.0,-397.0,3
229,33.0,-227.0,-119.0,-195.0,-100.0,-294.0,116.0,-907.0,-391.0,3
230,34.0,-228.0,-119.0,-175.0,-101.0,-292.0,116.0,-902.0,-400.0,3
231,33.0,-224.0,-120.0,-156.0,-102.0,-295.0,119.0,-899.0,-403.0,3
232,36.0,-227.0,-122.0,-138.0,-98.0,-293.0,119.0,-896.0,-403.0,3
233,38.0,-224.0,-121.0,-124.0,-92.0,-297.0,125.0,-894.0,-403.0,3
234,41.0,-224.0,-120.0,-113.0,-84.0,-295.0,126.0,-893.0,-397.0,3
235,35.0,-220.0,-118.0,-104.0,-78.0,-295.0,133.0,-889.0,-392.0,3
236,38.0,-223.0,-118.0,-100.0,-74.0,-290.0,133.0,-886.0,-397.0,3
237,40.0,-220.0,-118.0,-101.0,-70.0,-290.0,142.0,-888.0,-405.0,3
238,42.0,-222.0,-126.0,-115.0,-67.0,-287.0,140.0,-889.0,-413.0,3
239,38.0,-221.0,-125.0,-147.0,-61.0,-287.0,137.0,-885.0,-428.0,3
240,39.0,-221.0,-128.0,-183.0,-60.0,-281.0,137.0,-893.0,-437.0,3
241,43.0,-225.0,-132.0,-223.0,-59.0,-278.0,144.0,-895.0,-454.0,3
242,46.0,-225.0,-135.0,-267.0,-49.0,-276.0,152.0,-902.0,-467.0,3
243,42.0,-225.0,-132.0,-310.0,-34.0,-282.0,158.0,-904.0,-470.0,3
244,47.0,-226.0,-135.0,-344.0,-18.0,-279.0,159.0,-910.0,-466.0,3
245,47.0,-230.0,-139.0,-366.0,2.0,-281.0,168.0,-913.0,-463.0,3
246,46.0,-230.0,-135.0,-377.0,24.0,-281.0,168.0,-915.0,-452.0,3
247,46.0,-232.0,-126.0,-373.0,43.0,-285.0,174.0,-917.0,-443.0,3
248,50.0,-229.0,-126.0,-364.0,58.0,-283.0,178.0,-921.0,-440.0,3
249,49.0,-236.0,-128.0,-350.0,71.0,-287.0,182.0,-925.0,-439.0,3
250,49.0,-235.0,-126.0,-336.0,83.0,-288.0,177.0,-924.0,-424.0,3
251,49.0,-236.0,-122.0,-320.0,89.0,-291.0,181.0,-925.0,-419.0,3
252,49.0,-236.0,-119.0,-294.0,91.0,-290.0,179.0,-931.0,-408.0,3
253,48.0,-236.0,-122.0,-266.0,85.0,-293.0,174.0,-925.0,-402.0,3
254,47.0,-238.0,-120.0,-227.0,77.0,-292.0,172.0,-922.0,-395.0,3
255,48.0,-240.0,-113.0,-177.0,66.0,-297.0,166.0,-918.0,-378.0,3
256,45.0,-234.0,-116.0,-115.0,53.0,-297.0,158.0,-915.0,-375.0,3
257,42.0,-232.0,-115.0,-45.0,44.0,-301.0,157.0,-912.0,-376.0,3
258,40.0,-232.0,-116.0,24.0,38.0,-297.0,153.0,-910.0,-379.0,3
259,42.0,-225.0,-114.0,89.0,39.0,-296.0,139.0,-894.0,-389.0,3
260,42.0,-221.0,-121.0,143.0,45.0,-290.0,139.0,-884.0,-396.0,3
261,37.0,-217.0,-117.0,183.0,58.0,-289.0,134.0,-866.0,-404.0,3
262,39.0,-214.0,-118.0,203.0,73.0,-285.0,132.0,-852.0,-404.0,3
263,36.0,-206.0,-121.0,208.0,91.0,-283.0,131.0,-835.0,-408.0,3
264,37.0,-202.0,-121.0,196.0,108.0,-277.0,132.0,-819.0,-408.0,3
265,38.0,-203.0,-116.0,162.0,120.0,-279.0,127.0,-817.0,-407.0,3
266,41.0,-198.0,-120.0,120.0,125.0,-274.0,128.0,-810.0,-399.0,3
267,39.0,-201.0,-116.0,76.0,122.0,-271.0,127.0,-812.0,-388.0,3
268,37.0,-204.0,-114.0,29.0,121.0,-263.0,129.0,-820.0,-375.0,3
269,37.0,-205.0,-112.0,-8.0,121.0,-259.0,124.0,-826.0,-365.0,3
270,37.0,-208.0,-109.0,-37.0,118.0,-252.0,132.0,-836.0,-355.0,3
271,34.0,-212.0,-105.0,-53.0,119.0,-253.0,125.0,-844.0,-342.0,3
272,37.0,-217.0,-101.0,-58.0,119.0,-252.0,127.0,-858.0,-331.0,3
273,38.0,-221.0,-101.0,-54.0,117.0,-257.0,123.0,-869.0,-316.0,3
274,31.0,-222.0,-98.0,-41.0,114.0,-261.0,118.0,-874.0,-306.0,3
275,34.0,-222.0,-94.0,-18.0,107.0,-271.0,112.0,-885.0,-301.0,3
276,31.0,-224.0,-90.0,11.0,94.0,-277.0,113.0,-880.0,-291.0,3
277,29.0,-225.0,-88.0,49.0,75.0,-281.0,107.0,-888.0,-274.0,3
278,31.0,-229.0,-85.0,95.0,56.0,-279.0,108.0,-893.0,-272.0,3
279,31.0,-227.0,-90.0,130.0,33.0,-285.0,105.0,-900.0,-272.0,3
280,28.0,-229.0,-88.0,154.0,11.0,-288.0,98.0,-891.0,-266.0,3
281,28.0,-225.0,-86.0,167.0,-9.0,-289.0,97.0,-891.0,-271.0,3
282,28.0,-218.0,-91.0,167.0,-29.0,-282.0,96.0,-883.0,-271.0,3
283,28.0,-220.0,-89.0,146.0,-44.0,-277.0,98.0,-878.0,-285.0,3
284,26.0,-219.0,-89.0,108.0,-67.0,-278.0,94.0,-876.0,-273.0,3
285,21.0,-217.0,-86.0,57.0,-93.0,-282.0,78.0,-878.0,-270.0,3
286,12.0,-220.0,-84.0,-5.0,-122.0,-283.0,43.0,-885.0,-262.0,3
287,12.0,-224.0,-82.0,-76.0,-157.0,-291.0,40.0,-898.0,-250.0,3
288,18.0,-224.0,-70.0,-151.0,-198.0,-299.0,50.0,-902.0,-237.0,3
289,18.0,-229.0,-77.0,-218.0,-235.0,-305.0,58.0,-901.0,-234.0,3
290,15.0,-230.0,-79.0,-267.0,-261.0,-306.0,45.0,-917.0,-234.0,3
291,11.0,-233.0,-78.0,-303.0,-272.0,-309.0,25.0,-925.0,-235.0,3
292,8.0,-236.0,-81.0,-319.0,-282.0,-306.0,16.0,-936.0,-235.0,3
293,3.0,-242.0,-79.0,-328.0,-301.0,-303.0,8.0,-951.0,-243.0,3
294,2.0,-246.0,-80.0,-341.0,-325.0,-298.0,-1.0,-964.0,-255.0,3
295,-7.0,-250.0,-88.0,-360.0,-357.0,-296.0,-16.0,-977.0,-250.0,3
296,-4.0,-253.0,-83.0,-382.0,-390.0,-285.0,-26.0,-1006.0,-255.0,3
297,-6.0,-259.0,-87.0,-406.0,-428.0,-276.0,-31.0,-1030.0,-250.0,3
298,-2.0,-269.0,-84.0,-434.0,-469.0,-268.0,-19.0,-1067.0,-246.0,3
299,17.0,-282.0,-85.0,-459.0,-511.0,-271.0,32.0,-1105.0,-249.0,3
300,18.0,-290.0,-82.0,-485.0,-546.0,-284.0,54.0,-1137.0,-249.0,3
301,15.0,-304.0,-85.0,-501.0,-566.0,-296.0,48.0,-1182.0,-248.0,3
302,9.0,-316.0,-80.0,-507.0,-582.0,-308.0,33.0,-1227.0,-236.0,3
303,11.0,-324.0,-81.0,-498.0,-615.0,-315.0,28.0,-1262.0,-238.0,3
304,14.0,-334.0,-83.0,-471.0,-647.0,-307.0,27.0,-1296.0,-254.0,3
305,14.0,-338.0,-92.0,-446.0,-664.0,-301.0,38.0,-1324.0,-288.0,3
306,20.0,-339.0,-95.0,-433.0,-672.0,-297.0,54.0,-1338.0,-309.0,3
307,21.0,-339.0,-106.0,-424.0,-666.0,-293.0,70.0,-1348.0,-340.0,3
308,29.0,-345.0,-107.0,-419.0,-648.0,-285.0,86.0,-1363.0,-354.0,3
309,17.0,-359.0,-104.0,-420.0,-626.0,-294.0,69.0,-1379.0,-344.0,3
310,32.0,-356.0,-99.0,-423.0,-614.0,-317.0,100.0,-1405.0,-313.0,3
311,45.0,-364.0,-94.0,-411.0,-615.0,-343.0,150.0,-1421.0,-300.0,3
312,53.0,-366.0,-93.0,-373.0,-599.0,-366.0,177.0,-1421.0,-284.0,3
313,55.0,-364.0,-91.0,-298.0,-563.0,-372.0,191.0,-1418.0,-282.0,3
314,55.0,-362.0,-95.0,-195.0,-504.0,-374.0,185.0,-1412.0,-271.0,3
315,54.0,-354.0,-88.0,-80.0,-431.0,-375.0,174.0,-1383.0,-261.0,3
316,50.0,-341.0,-86.0,35.0,-343.0,-379.0,172.0,-1351.0,-248.0,3
317,54.0,-333.0,-79.0,157.0,-273.0,-383.0,177.0,-1282.0,-237.0,3
318,54.0,-316.0,-79.0,237.0,-207.0,-379.0,186.0,-1227.0,-232.0,3
319,54.0,-299.0,-74.0,299.0,-142.0,-367.0,196.0,-1180.0,-226.0,3
320,57.0,-284.0,-74.0,343.0,-85.0,-353.0,199.0,-1123.0,-215.0,3
321,52.0,-270.0,-70.0,368.0,-39.0,-339.0,198.0,-1077.0,-201.0,3
322,53.0,-259.0,-69.0,375.0,-11.0,-323.0,202.0,-1029.0,-180.0,3
323,52.0,-247.0,-61.0,368.0,4.0,-304.0,197.0,-976.0,-148.0,3
324,49.0,-234.0,-51.0,346.0,3.0,-287.0,190.0,-931.0,-123.0,3
325,48.0,-225.0,-46.0,313.0,-8.0,-267.0,180.0,-893.0,-92.0,3
326,46.0,-212.0,-29.0,274.0,-26.0,-240.0,166.0,-853.0,-58.0,3
327,39.0,-202.0,-30.0,229.0,-47.0,-209.0,150.0,-814.0,-40.0,3
328,34.0,-190.0,-29.0,180.0,-66.0,-179.0,130.0,-780.0,-23.0,3
329,32.0,-180.0,-32.0,123.0,-80.0,-136.0,115.0,-735.0,-34.0,3
330,29.0,-169.0,-39.0,43.0,-84.0,-99.0,112.0,-683.0,-60.0,3
331,27.0,-159.0,-48.0,-33.0,-85.0,-66.0,98.0,-640.0,-114.0,3
332,31.0,-144.0,-76.0,-115.0,-75.0,-37.0,100.0,-587.0,-222.0,3
333,40.0,-129.0,-121.0,-215.0,-52.0,-15.0,131.0,-541.0,-407.0,3
334,59.0,-111.0,-176.0,-360.0,-5.0,8.0,219.0,-501.0,-610.0,3
335,102.0,-99.0,-213.0,-557.0,69.0,41.0,345.0,-454.0,-767.0,3
336,140.0,-84.0,-240.0,-769.0,183.0,80.0,480.0,-418.0,-881.0,3
337,159.0,-76.0,-245.0,-937.0,334.0,109.0,575.0,-356.0,-920.0,3
338,163.0,-67.0,-231.0,-1018.0,509.0,114.0,601.0,-305.0,-874.0,3
339,148.0,-64.0,-207.0,-982.0,666.0,93.0,551.0,-267.0,-754.0,3
340,115.0,-68.0,-166.0,-847.0,746.0,45.0,439.0,-257.0,-611.0,3
341,76.0,-73.0,-141.0,-645.0,726.0,-18.0,326.0,-285.0,-493.0,3
342,56.0,-84.0,-120.0,-424.0,618.0,-87.0,242.0,-322.0,-418.0,3
343,53.0,-91.0,-120.0,-170.0,427.0,-117.0,228.0,-358.0,-409.0,3
344,75.0,-96.0,-128.0,15.0,277.0,-117.0,292.0,-381.0,-438.0,3
345,105.0,-93.0,-135.0,181.0,179.0,-87.0,389.0,-382.0,-475.0,3
346,134.0,-87.0,-139.0,328.0,137.0,-48.0,493.0,-356.0,-488.0,3
347,141.0,-74.0,-144.0,448.0,137.0,-10.0,527.0,-318.0,-508.0,3
348,131.0,-62.0,-154.0,522.0,171.0,22.0,480.0,-258.0,-537.0,3
349,104.0,-44.0,-162.0,523.0,235.0,58.0,368.0,-205.0,-576.0,3
350,74.0,-30.0,-179.0,435.0,325.0,91.0,267.0,-184.0,-628.0,3
351,54.0,-30.0,-192.0,249.0,425.0,121.0,192.0,-190.0,-690.0,3
352,50.0,-49.0,-207.0,-25.0,529.0,140.0,170.0,-253.0,-757.0,3
353,52.0,-71.0,-224.0,-356.0,629.0,151.0,179.0,-340.0,-810.0,3
354,52.0,-97.0,-226.0,-682.0,724.0,141.0,185.0,-435.0,-837.0,3
355,53.0,-123.0,-230.0,-965.0,814.0,114.0,192.0,-515.0,-854.0,3
356,48.0,-137.0,-228.0,-1221.0,895.0,91.0,185.0,-577.0,-840.0,3
357,47.0,-156.0,-223.0,-1347.0,925.0,73.0,176.0,-661.0,-821.0,3
358,41.0,-176.0,-217.0,-1402.0,912.0,58.0,157.0,-714.0,-780.0,3
359,35.0,-193.0,-200.0,-1400.0,862.0,41.0,138.0,-770.0,-736.0,3
360,31.0,-208.0,-187.0,-1355.0,776.0,22.0,123.0,-824.0,-688.0,3
361,26.0,-226.0,-178.0,-1280.0,667.0,8.0,103.0,-879.0,-642.0,3
362,21.0,-243.0,-166.0,-1188.0,548.0,0.0,94.0,-941.0,-592.0,3
363,16.0,-259.0,-156.0,-1096.0,426.0,5.0,67.0,-1002.0,-552.0,3
364,15.0,-264.0,-148.0,-1019.0,315.0,26.0,57.0,-1060.0,-526.0,3
365,12.0,-281.0,-143.0,-972.0,222.0,67.0,32.0,-1115.0,-507.0,3
366,6.0,-294.0,-149.0,-960.0,149.0,122.0,8.0,-1157.0,-508.0,3
367,-6.0,-304.0,-159.0,-993.0,103.0,189.0,-28.0,-1211.0,-524.0,3
368,-14.0,-317.0,-161.0,-1079.0,86.0,280.0,-62.0,-1265.0,-549.0,3
369,-16.0,-326.0,-166.0,-1242.0,100.0,363.0,-93.0,-1297.0,-580.0,3
370,-18.0,-337.0,-170.0,-1410.0,132.0,446.0,-102.0,-1336.0,-617.0,3
371,-21.0,-346.0,-180.0,-1590.0,175.0,528.0,-106.0,-1387.0,-626.0,3
372,-16.0,-357.0,-180.0,-1758.0,220.0,612.0,-103.0,-1414.0,-627.0,3
373,-16.0,-366.0,-175.0,-1884.0,259.0,692.0,-99.0,-1448.0,-611.0,3
374,-15.0,-385.0,-171.0,-1946.0,277.0,769.0,-86.0,-1479.0,-595.0,3
375,-16.0,-389.0,-162.0,-1934.0,278.0,849.0,-83.0,-1516.0,-567.0,3
376,-15.0,-400.0,-159.0,-1856.0,267.0,929.0,-80.0,-1552.0,-553.0,3
377,-14.0,-415.0,-155.0,-1730.0,240.0,1013.0,-73.0,-1584.0,-543.0,3
378,-16.0,-423.0,-156.0,-1577.0,189.0,1091.0,-68.0,-1626.0,-541.0,3
379,-15.0,-431.0,-160.0,-1419.0,109.0,1176.0,-72.0,-1666.0,-552.0,3
380,-13.0,-447.0,-164.0,-1268.0,5.0,1253.0,-55.0,-1713.0,-561.0,3
381,-11.0,-457.0,-161.0,-1125.0,-113.0,1336.0,-48.0,-1770.0,-559.0,3
382,-8.0,-474.0,-157.0,-955.0,-252.0,1383.0,-49.0,-1821.0,-549.0,3
383,-16.0,-489.0,-145.0,-797.0,-359.0,1419.0,-70.0,-1882.0,-509.0,3
384,-16.0,-498.0,-134.0,-582.0,-458.0,1452.0,-82.0,-1901.0,-449.0,3
385,-23.0,-498.0,-120.0,-309.0,-556.0,1485.0,-110.0,-1893.0,-401.0,3
386,-28.0,-499.0,-109.0,21.0,-646.0,1519.0,-133.0,-1883.0,-367.0,3
387,-33.0,-488.0,-107.0,380.0,-731.0,1555.0,-145.0,-1836.0,-339.0,3
388,-40.0,-469.0,-104.0,741.0,-815.0,1572.0,-167.0,-1792.0,-322.0,3
389,-51.0,-449.0,-104.0,1082.0,-896.0,1569.0,-202.0,-1723.0,-319.0,3
390,-56.0,-432.0,-96.0,1384.0,-974.0,1550.0,-242.0,-1633.0,-306.0,3
391,-64.0,-397.0,-89.0,1654.0,-1054.0,1539.0,-261.0,-1525.0,-277.0,3
392,-71.0,-364.0,-88.0,1889.0,-1136.0,1529.0,-287.0,-1402.0,-268.0,3
393,-76.0,-329.0,-86.0,2082.0,-1211.0,1535.0,-311.0,-1277.0,-265.0,3
394,-77.0,-295.0,-90.0,2216.0,-1260.0,1548.0,-325.0,-1174.0,-276.0,3
395,-73.0,-263.0,-98.0,2271.0,-1275.0,1550.0,-304.0,-1067.0,-298.0,3
396,-61.0,-234.0,-109.0,2231.0,-1224.0,1552.0,-285.0,-965.0,-324.0,3
397,-46.0,-216.0,-112.0,2124.0,-1105.0,1562.0,-230.0,-896.0,-352.0,3
398,-28.0,-206.0,-122.0,1962.0,-927.0,1550.0,-169.0,-837.0,-417.0,3
399,-16.0,-194.0,-145.0,1730.0,-727.0,1522.0,-88.0,-817.0,-509.0,3
400,1.0,-179.0,-166.0,1403.0,-557.0,1470.0,-15.0,-769.0,-599.0,3
401,23.0,-163.0,-183.0,1004.0,-441.0,1400.0,82.0,-715.0,-650.0,3
402,54.0,-146.0,-184.0,584.0,-376.0,1291.0,211.0,-651.0,-651.0,3
403,81.0,-131.0,-168.0,180.0,-375.0,1143.0,304.0,-575.0,-608.0,3
404,91.0,-114.0,-154.0,-178.0,-422.0,940.0,360.0,-514.0,-556.0,3
405,111.0,-126.0,-149.0,-493.0,-489.0,714.0,414.0,-534.0,-523.0,3
406,132.0,-147.0,-142.0,-774.0,-551.0,433.0,486.0,-605.0,-503.0,3
407,146.0,-172.0,-133.0,-1012.0,-591.0,47.0,548.0,-699.0,-453.0,3
408,165.0,-204.0,-106.0,-1183.0,-578.0,-264.0,606.0,-802.0,-356.0,3
409,174.0,-237.0,-78.0,-1171.0,-502.0,-520.0,626.0,-895.0,-237.0,3
410,165.0,-265.0,-55.0,-1006.0,-373.0,-723.0,597.0,-991.0,-149.0,3
411,138.0,-283.0,-45.0,-719.0,-233.0,-867.0,521.0,-1067.0,-84.0,3
412,111.0,-287.0,-49.0,-360.0,-116.0,-970.0,378.0,-1072.0,-113.0,3
413,86.0,-254.0,-68.0,6.0,-18.0,-1024.0,302.0,-963.0,-190.0,3
414,70.0,-207.0,-84.0,340.0,70.0,-1049.0,254.0,-805.0,-243.0,3
415,62.0,-170.0,-88.0,623.0,157.0,-1067.0,214.0,-640.0,-270.0,3
416,48.0,-121.0,-84.0,819.0,234.0,-1090.0,163.0,-455.0,-242.0,3
417,25.0,-71.0,-73.0,927.0,290.0,-1104.0,91.0,-294.0,-196.0,3
418,0.0,-31.0,-62.0,962.0,329.0,-1110.0,4.0,-152.0,-155.0,3
419,-27.0,-4.0,-70.0,944.0,354.0,-1095.0,-86.0,-62.0,-195.0,3
420,-53.0,9.0,-110.0,887.0,348.0,-1056.0,-178.0,-10.0,-343.0,3
421,-82.0,16.0,-150.0,770.0,277.0,-1003.0,-286.0,13.0,-513.0,3
422,-108.0,27.0,-168.0,650.0,183.0,-949.0,-396.0,51.0,-589.0,3
423,-114.0,46.0,-170.0,557.0,113.0,-896.0,-444.0,127.0,-599.0,3
424,-105.0,61.0,-178.0,509.0,106.0,-837.0,-425.0,205.0,-636.0,3
425,-99.0,82.0,-207.0,500.0,179.0,-742.0,-410.0,285.0,-774.0,3
426,-98.0,90.0,-251.0,525.0,349.0,-593.0,-415.0,296.0,-954.0,3
427,-75.0,74.0,-290.0,570.0,601.0,-378.0,-327.0,249.0,-1099.0,3
428,-39.0,59.0,-307.0,603.0,909.0,-164.0,-193.0,178.0,-1162.0,3
429,-20.0,46.0,-290.0,605.0,1204.0,2.0,-107.0,126.0,-1103.0,3
430,-28.0,34.0,-269.0,568.0,1386.0,102.0,-90.0,85.0,-1022.0,3
431,-46.0,22.0,-244.0,467.0,1375.0,154.0,-126.0,27.0,-940.0,3
432,-66.0,7.0,-229.0,288.0,1161.0,162.0,-207.0,-43.0,-852.0,3
433,-99.0,-19.0,-194.0,71.0,808.0,169.0,-325.0,-133.0,-738.0,3
434,-139.0,-41.0,-167.0,-163.0,287.0,208.0,-460.0,-205.0,-620.0,3
435,-163.0,-68.0,-149.0,-292.0,-167.0,308.0,-561.0,-302.0,-545.0,3
436,-154.0,-88.0,-149.0,-384.0,-606.0,464.0,-567.0,-365.0,-527.0,3
437,-125.0,-100.0,-176.0,-483.0,-1021.0,639.0,-471.0,-418.0,-607.0,3
438,-67.0,-127.0,-208.0,-638.0,-1398.0,761.0,-279.0,-519.0,-765.0,3
439,0.0,-167.0,-248.0,-893.0,-1702.0,756.0,-9.0,-719.0,-919.0,3
440,54.0,-209.0,-281.0,-1269.0,-1858.0,613.0,152.0,-904.0,-1036.0,3
441,93.0,-250.0,-295.0,-1763.0,-1799.0,419.0,301.0,-1134.0,-1102.0,3
442,120.0,-320.0,-311.0,-2386.0,-1532.0,219.0,386.0,-1407.0,-1159.0,3
443,150.0,-384.0,-319.0,-3110.0,-1100.0,52.0,459.0,-1626.0,-1183.0,3
444,154.0,-448.0,-296.0,-3802.0,-567.0,-70.0,481.0,-1816.0,-1085.0,3
445,130.0,-527.0,-256.0,-4282.0,-46.0,-177.0,421.0,-2043.0,-925.0,3
446,93.0,-597.0,-232.0,-4410.0,365.0,-373.0,299.0,-2247.0,-847.0,3
447,63.0,-671.0,-205.0,-4041.0,676.0,-575.0,204.0,-2449.0,-740.0,3
448,47.0,-731.0,-187.0,-3288.0,780.0,-808.0,137.0,-2631.0,-651.0,3
449,54.0,-759.0,-182.0,-2223.0,805.0,-1040.0,150.0,-2756.0,-625.0,3
450,69.0,-741.0,-202.0,-1057.0,817.0,-1259.0,218.0,-2725.0,-707.0,3
451,79.0,-681.0,-217.0,11.0,832.0,-1423.0,256.0,-2551.0,-783.0,3
452,83.0,-616.0,-230.0,926.0,835.0,-1514.0,282.0,-2292.0,-844.0,3
453,90.0,-555.0,-241.0,1679.0,830.0,-1512.0,316.0,-2104.0,-869.0,3
454,95.0,-508.0,-241.0,2249.0,845.0,-1457.0,312.0,-1960.0,-879.0,3
455,91.0,-469.0,-241.0,2625.0,896.0,-1350.0,302.0,-1829.0,-863.0,3
456,91.0,-428.0,-229.0,2830.0,998.0,-1212.0,300.0,-1706.0,-836.0,3
457,107.0,-395.0,-217.0,2883.0,1160.0,-1053.0,334.0,-1588.0,-777.0,3
458,116.0,-371.0,-207.0,2801.0,1352.0,-929.0,411.0,-1490.0,-732.0,3
459,132.0,-346.0,-191.0,2604.0,1531.0,-815.0,471.0,-1416.0,-691.0,3
460,145.0,-330.0,-177.0,2261.0,1700.0,-743.0,529.0,-1361.0,-623.0,3
461,156.0,-317.0,-156.0,1934.0,1812.0,-668.0,566.0,-1304.0,-541.0,3
462,164.0,-313.0,-137.0,1615.0,1912.0,-605.0,577.0,-1274.0,-469.0,3
463,156.0,-307.0,-121.0,1321.0,2010.0,-535.0,579.0,-1255.0,-409.0,3
464,154.0,-298.0,-113.0,1055.0,2101.0,-469.0,567.0,-1222.0,-369.0,3
465,148.0,-286.0,-115.0,821.0,2178.0,-403.0,546.0,-1175.0,-367.0,3
466,123.0,-272.0,-108.0,632.0,2234.0,-349.0,472.0,-1091.0,-344.0,3
467,106.0,-254.0,-113.0,527.0,2256.0,-296.0,382.0,-985.0,-387.0,3
468,63.0,-212.0,-148.0,486.0,2232.0,-282.0,225.0,-835.0,-516.0,3
469,8.0,-162.0,-187.0,474.0,2171.0,-281.0,22.0,-667.0,-668.0,3
470,-37.0,-119.0,-206.0,453.0,2090.0,-264.0,-148.0,-514.0,-753.0,3
471,-77.0,-82.0,-217.0,410.0,2014.0,-219.0,-295.0,-365.0,-810.0,3
472,-106.0,-49.0,-212.0,325.0,1959.0,-148.0,-397.0,-246.0,-786.0,3
473,-138.0,-30.0,-193.0,172.0,1877.0,-78.0,-500.0,-179.0,-723.0,3
474,-148.0,-22.0,-172.0,16.0,1758.0,-13.0,-547.0,-144.0,-631.0,3
475,-153.0,-25.0,-155.0,-143.0,1588.0,64.0,-566.0,-149.0,-539.0,3
476,-152.0,-37.0,-123.0,-287.0,1386.0,163.0,-560.0,-180.0,-431.0,3
477,-147.0,-53.0,-85.0,-393.0,1175.0,311.0,-544.0,-210.0,-304.0,3
478,-141.0,-67.0,-46.0,-411.0,981.0,482.0,-526.0,-247.0,-134.0,3
479,-141.0,-80.0,8.0,-284.0,823.0,656.0,-524.0,-287.0,105.0,3
480,-138.0,-89.0,45.0,-2.0,700.0,806.0,-528.0,-279.0,255.0,3
481,-135.0,-80.0,63.0,400.0,599.0,937.0,-511.0,-262.0,325.0,3
482,-121.0,-65.0,60.0,813.0,505.0,1021.0,-459.0,-218.0,309.0,3
483,-97.0,-35.0,38.0,1129.0,392.0,1065.0,-372.0,-152.0,236.0,3
484,-75.0,-16.0,15.0,1283.0,249.0,1077.0,-256.0,-74.0,136.0,3
485,-37.0,7.0,1.0,1266.0,86.0,1063.0,-114.0,-19.0,79.0,3
486,-9.0,20.0,-1.0,1095.0,-109.0,1022.0,-3.0,36.0,67.0,3
487,11.0,28.0,2.0,924.0,-239.0,986.0,65.0,70.0,82.0,3
488,27.0,23.0,8.0,787.0,-338.0,950.0,116.0,59.0,104.0,3
489,37.0,12.0,8.0,697.0,-419.0,919.0,145.0,31.0,101.0,3
490,43.0,-1.0,-35.0,645.0,-487.0,876.0,160.0,-16.0,6.0,3
491,54.0,-8.0,-132.0,602.0,-521.0,826.0,190.0,-65.0,-328.0,3
492,74.0,-12.0,-216.0,525.0,-494.0,765.0,257.0,-109.0,-866.0,3
493,116.0,-5.0,-275.0,390.0,-435.0,706.0,481.0,-83.0,-1038.0,3
494,186.0,14.0,-293.0,242.0,-412.0,648.0,735.0,-1.0,-1117.0,3
495,255.0,42.0,-329.0,112.0,-413.0,604.0,990.0,100.0,-1251.0,3
496,306.0,56.0,-347.0,45.0,-321.0,541.0,1140.0,164.0,-1324.0,3
497,268.0,45.0,-310.0,59.0,-106.0,427.0,1046.0,138.0,-1206.0,3
498,157.0,7.0,-270.0,110.0,-18.0,215.0,706.0,-8.0,-1053.0,3
499,74.0,-42.0,-288.0,57.0,-384.0,-13.0,377.0,-211.0,-1080.0,3
500,75.0,-93.0,-326.0,-174.0,-873.0,-316.0,302.0,-415.0,-1228.0,3
501,110.0,-132.0,-350.0,-486.0,-1188.0,-654.0,397.0,-594.0,-1342.0,3
502,168.0,-175.0,-358.0,-767.0,-1169.0,-969.0,544.0,-719.0,-1364.0,3
503,199.0,-201.0,-320.0,-943.0,-851.0,-1192.0,673.0,-818.0,-1241.0,3
504,201.0,-230.0,-277.0,-957.0,-386.0,-1317.0,708.0,-898.0,-1056.0,3
505,157.0,-254.0,-246.0,-850.0,59.0,-1394.0,583.0,-986.0,-939.0,3
506,79.0,-275.0,-236.0,-727.0,380.0,-1495.0,336.0,-1098.0,-865.0,3
507,-18.0,-285.0,-240.0,-663.0,576.0,-1626.0,-96.0,-1156.0,-877.0,3
508,-118.0,-303.0,-242.0,-721.0,696.0,-1679.0,-432.0,-1261.0,-899.0,3
509,-169.0,-332.0,-247.0,-981.0,679.0,-1527.0,-682.0,-1419.0,-932.0,3
510,-215.0,-375.0,-254.0,-1465.0,515.0,-1197.0,-840.0,-1606.0,-964.0,3
511,-216.0,-455.0,-249.0,-2093.0,223.0,-643.0,-831.0,-1882.0,-934.0,3
512,-182.0,-551.0,-219.0,-2863.0,-77.0,-148.0,-709.0,-2211.0,-802.0,3
513,-122.0,-656.0,-174.0,-3314.0,-378.0,334.0,-494.0,-2541.0,-624.0,3
514,-60.0,-754.0,-148.0,-3439.0,-607.0,738.0,-287.0,-2844.0,-505.0,3
515,-32.0,-798.0,-144.0,-3272.0,-726.0,1047.0,-188.0,-3026.0,-479.0,3
516,-29.0,-789.0,-149.0,-2920.0,-751.0,1306.0,-166.0,-3006.0,-502.0,3
517,-23.0,-759.0,-169.0,-2393.0,-760.0,1560.0,-140.0,-2867.0,-546.0,3
518,-15.0,-724.0,-176.0,-1662.0,-779.0,1762.0,-106.0,-2687.0,-610.0,3
519,2.0,-678.0,-200.0,-758.0,-796.0,1864.0,-39.0,-2510.0,-705.0,3
520,15.0,-628.0,-220.0,187.0,-812.0,1836.0,14.0,-2305.0,-804.0,3
521,25.0,-569.0,-220.0,1026.0,-829.0,1718.0,70.0,-2122.0,-811.0,3
522,33.0,-517.0,-205.0,1705.0,-849.0,1534.0,99.0,-1939.0,-751.0,3
523,36.0,-456.0,-185.0,2216.0,-864.0,1314.0,116.0,-1743.0,-657.0,3
524,35.0,-396.0,-164.0,2581.0,-873.0,1043.0,116.0,-1549.0,-566.0,3
525,15.0,-336.0,-152.0,2864.0,-904.0,850.0,70.0,-1356.0,-517.0,3
526,-5.0,-298.0,-147.0,2959.0,-982.0,705.0,-26.0,-1176.0,-491.0,3
527,-28.0,-261.0,-140.0,2906.0,-1090.0,623.0,-109.0,-1058.0,-493.0,3
528,-40.0,-235.0,-157.0,2684.0,-1198.0,556.0,-156.0,-994.0,-535.0,3
529,-35.0,-217.0,-162.0,2291.0,-1289.0,460.0,-138.0,-935.0,-569.0,3
530,-28.0,-197.0,-155.0,1799.0,-1377.0,350.0,-110.0,-874.0,-543.0,3
531,-14.0,-190.0,-149.0,1287.0,-1457.0,263.0,-79.0,-826.0,-523.0,3
532,1.0,-191.0,-141.0,828.0,-1473.0,181.0,-26.0,-803.0,-493.0,3
533,20.0,-192.0,-130.0,473.0,-1399.0,101.0,25.0,-773.0,-422.0,3
534,38.0,-195.0,-117.0,266.0,-1254.0,32.0,102.0,-767.0,-378.0,3
535,49.0,-191.0,-115.0,217.0,-1053.0,-18.0,164.0,-739.0,-379.0,3
536,69.0,-180.0,-121.0,273.0,-829.0,-62.0,243.0,-695.0,-386.0,3
537,84.0,-170.0,-113.0,384.0,-569.0,-104.0,291.0,-666.0,-367.0,3
538,97.0,-162.0,-103.0,561.0,-395.0,-164.0,340.0,-624.0,-336.0,3
539,99.0,-147.0,-98.0,718.0,-273.0,-235.0,354.0,-587.0,-301.0,3
540,97.0,-134.0,-84.0,855.0,-197.0,-305.0,365.0,-548.0,-268.0,3
541,92.0,-129.0,-67.0,946.0,-160.0,-355.0,346.0,-525.0,-201.0,3
542,88.0,-123.0,-32.0,1020.0,-143.0,-393.0,337.0,-482.0,-72.0,3
543,91.0,-116.0,-17.0,1134.0,-119.0,-422.0,316.0,-434.0,21.0,3
544,96.0,-105.0,-14.0,1306.0,-40.0,-446.0,350.0,-380.0,56.0,3
545,117.0,-77.0,-17.0,1510.0,102.0,-459.0,414.0,-303.0,29.0,3
546,141.0,-49.0,-36.0,1714.0,286.0,-476.0,501.0,-219.0,-30.0,3
547,158.0,-20.0,-57.0,1875.0,481.0,-497.0,567.0,-88.0,-148.0,3
548,160.0,9.0,-81.0,1978.0,674.0,-516.0,589.0,6.0,-237.0,3
549,150.0,31.0,-101.0,2015.0,851.0,-525.0,566.0,84.0,-306.0,3
550,127.0,48.0,-115.0,2003.0,1009.0,-526.0,491.0,138.0,-372.0,3
551,91.0,56.0,-124.0,1929.0,1065.0,-521.0,372.0,167.0,-416.0,3
552,57.0,68.0,-125.0,1833.0,1031.0,-501.0,241.0,203.0,-427.0,3
553,22.0,72.0,-115.0,1732.0,923.0,-469.0,110.0,235.0,-399.0,3
554,-5.0,80.0,-102.0,1645.0,786.0,-440.0,6.0,269.0,-341.0,3
555,-19.0,87.0,-85.0,1578.0,658.0,-415.0,-56.0,298.0,-281.0,3
556,-25.0,93.0,-76.0,1529.0,565.0,-389.0,-92.0,317.0,-237.0,3
557,-23.0,92.0,-72.0,1473.0,524.0,-360.0,-91.0,322.0,-212.0,3
558,-20.0,87.0,-79.0,1393.0,526.0,-332.0,-80.0,314.0,-227.0,3
559,-15.0,78.0,-101.0,1293.0,554.0,-306.0,-67.0,279.0,-302.0,3
560,-18.0,64.0,-131.0,1180.0,573.0,-275.0,-66.0,211.0,-485.0,3
561,-17.0,50.0,-171.0,1055.0,563.0,-235.0,-59.0,128.0,-646.0,3
562,-13.0,48.0,-212.0,900.0,527.0,-171.0,-33.0,109.0,-783.0,3
563,5.0,62.0,-280.0,620.0,495.0,-122.0,12.0,161.0,-1077.0,3
564,-6.0,85.0,-378.0,273.0,518.0,-131.0,-15.0,222.0,-1460.0,3
565,-47.0,78.0,-410.0,-123.0,486.0,-195.0,-142.0,239.0,-1605.0,3
566,-89.0,54.0,-339.0,-397.0,213.0,-234.0,-229.0,166.0,-1376.0,3
567,-126.0,16.0,-275.0,-523.0,-342.0,-185.0,-389.0,20.0,-1094.0,3
568,-183.0,-16.0,-269.0,-752.0,-843.0,-46.0,-678.0,-168.0,-1010.0,3
569,-236.0,-55.0,-286.0,-1334.0,-959.0,198.0,-991.0,-418.0,-1073.0,3
570,-318.0,-140.0,-334.0,-2332.0,-685.0,512.0,-1293.0,-773.0,-1256.0,3
571,-365.0,-241.0,-372.0,-3664.0,-318.0,827.0,-1445.0,-1111.0,-1390.0,3
572,-334.0,-320.0,-366.0,-4989.0,-153.0,1077.0,-1305.0,-1323.0,-1382.0,3
573,-241.0,-386.0,-373.0,-5869.0,-336.0,1172.0,-962.0,-1478.0,-1382.0,3
574,-142.0,-472.0,-397.0,-6178.0,-744.0,1052.0,-617.0,-1788.0,-1508.0,3
575,-25.0,-594.0,-381.0,-6051.0,-1132.0,774.0,-144.0,-2206.0,-1448.0,3
576,104.0,-732.0,-337.0,-5393.0,-1345.0,615.0,291.0,-2643.0,-1273.0,3
577,176.0,-811.0,-292.0,-4354.0,-1267.0,571.0,620.0,-2943.0,-1034.0,3
578,227.0,-862.0,-254.0,-2791.0,-984.0,572.0,763.0,-3092.0,-922.0,3
579,214.0,-878.0,-252.0,-941.0,-593.0,545.0,729.0,-3204.0,-911.0,3
580,179.0,-856.0,-242.0,684.0,-268.0,468.0,624.0,-3207.0,-888.0,3
581,155.0,-786.0,-217.0,1746.0,-113.0,344.0,537.0,-3025.0,-795.0,3
582,143.0,-705.0,-186.0,2292.0,-85.0,159.0,494.0,-2733.0,-671.0,3
583,148.0,-609.0,-178.0,2551.0,-67.0,-79.0,513.0,-2433.0,-615.0,3
584,150.0,-537.0,-183.0,2646.0,-3.0,-343.0,527.0,-2154.0,-630.0,3
585,128.0,-476.0,-190.0,2623.0,91.0,-600.0,469.0,-1931.0,-666.0,3
586,106.0,-439.0,-192.0,2515.0,172.0,-781.0,370.0,-1752.0,-686.0,3
587,85.0,-413.0,-186.0,2346.0,231.0,-867.0,290.0,-1623.0,-651.0,3
588,67.0,-372.0,-172.0,2150.0,276.0,-870.0,243.0,-1497.0,-599.0,3
589,62.0,-347.0,-155.0,1905.0,302.0,-823.0,215.0,-1395.0,-538.0,3
590,48.0,-317.0,-143.0,1709.0,335.0,-764.0,156.0,-1267.0,-478.0,3
591,35.0,-284.0,-135.0,1558.0,386.0,-717.0,111.0,-1140.0,-437.0,3
592,25.0,-254.0,-133.0,1467.0,435.0,-690.0,93.0,-1033.0,-462.0,3
593,14.0,-227.0,-144.0,1409.0,449.0,-655.0,57.0,-918.0,-493.0,3
594,4.0,-216.0,-141.0,1385.0,432.0,-584.0,-6.0,-852.0,-498.0,3
595,-29.0,-223.0,-147.0,1426.0,408.0,-504.0,-126.0,-872.0,-504.0,3
596,-64.0,-234.0,-147.0,1483.0,404.0,-399.0,-259.0,-930.0,-504.0,3
597,-79.0,-244.0,-133.0,1508.0,424.0,-282.0,-324.0,-957.0,-463.0,3
598,-83.0,-235.0,-115.0,1517.0,438.0,-219.0,-346.0,-923.0,-402.0,3
599,-82.0,-206.0,-110.0,1532.0,417.0,-208.0,-329.0,-849.0,-360.0,3
600,-82.0,-180.0,-91.0,1553.0,373.0,-202.0,-328.0,-735.0,-301.0,3
601,-76.0,-147.0,-84.0,1598.0,329.0,-159.0,-299.0,-590.0,-249.0,3
602,-76.0,-114.0,-85.0,1637.0,282.0,-109.0,-288.0,-484.0,-257.0,3
603,-78.0,-83.0,-86.0,1582.0,224.0,-56.0,-282.0,-360.0,-264.0,3
604,-71.0,-53.0,-84.0,1426.0,155.0,-3.0,-263.0,-253.0,-260.0,3
605,-66.0,-26.0,-79.0,1185.0,83.0,41.0,-230.0,-165.0,-235.0,3
606,-49.0,-10.0,-60.0,912.0,8.0,81.0,-172.0,-102.0,-167.0,3
607,-24.0,-5.0,-36.0,665.0,-65.0,118.0,-96.0,-76.0,-86.0,3
608,-8.0,-14.0,-7.0,496.0,-129.0,149.0,-32.0,-82.0,27.0,3
609,10.0,-32.0,18.0,440.0,-174.0,167.0,32.0,-121.0,148.0,3
610,19.0,-48.0,49.0,500.0,-215.0,176.0,80.0,-165.0,234.0,3
611,17.0,-50.0,49.0,647.0,-260.0,177.0,80.0,-179.0,271.0,3
612,12.0,-42.0,45.0,841.0,-308.0,187.0,52.0,-151.0,261.0,3
613,2.0,-23.0,34.0,1041.0,-349.0,210.0,29.0,-98.0,227.0,3
614,7.0,0.0,20.0,1217.0,-405.0,228.0,41.0,-14.0,154.0,3
615,17.0,34.0,4.0,1371.0,-464.0,230.0,93.0,125.0,94.0,3
616,36.0,64.0,-16.0,1441.0,-526.0,219.0,144.0,232.0,6.0,3
617,45.0,92.0,-40.0,1432.0,-575.0,194.0,185.0,311.0,-74.0,3
618,50.0,114.0,-54.0,1337.0,-592.0,164.0,203.0,375.0,-139.0,3
619,47.0,127.0,-64.0,1167.0,-584.0,133.0,198.0,416.0,-182.0,3
620,47.0,133.0,-71.0,953.0,-563.0,115.0,185.0,435.0,-199.0,3
621,43.0,130.0,-69.0,728.0,-547.0,111.0,180.0,445.0,-191.0,3
622,42.0,127.0,-61.0,521.0,-552.0,122.0,185.0,437.0,-169.0,3
623,45.0,118.0,-60.0,341.0,-575.0,138.0,190.0,404.0,-174.0,3
624,48.0,104.0,-80.0,180.0,-601.0,161.0,199.0,351.0,-241.0,3
625,50.0,81.0,-123.0,13.0,-625.0,173.0,217.0,269.0,-382.0,3
626,63.0,65.0,-180.0,-198.0,-666.0,181.0,243.0,186.0,-585.0,3
627,88.0,81.0,-270.0,-586.0,-706.0,176.0,293.0,177.0,-890.0,3
628,120.0,103.0,-362.0,-1100.0,-551.0,173.0,373.0,268.0,-1432.0,3
629,187.0,126.0,-449.0,-1739.0,-35.0,179.0,607.0,362.0,-1744.0,3
630,219.0,123.0,-477.0,-2274.0,792.0,195.0,696.0,379.0,-1822.0,3
631,188.0,59.0,-442.0,-2505.0,1608.0,191.0,686.0,169.0,-1704.0,3
632,153.0,-56.0,-362.0,-2511.0,2008.0,-2.0,665.0,-259.0,-1419.0,3
633,138.0,-151.0,-292.0,-2599.0,1734.0,-509.0,642.0,-673.0,-1143.0,3
634,156.0,-252.0,-284.0,-3021.0,1005.0,-1179.0,669.0,-1081.0,-1093.0,3
635,180.0,-378.0,-244.0,-3753.0,254.0,-1901.0,719.0,-1509.0,-966.0,3
636,179.0,-508.0,-134.0,-4520.0,-309.0,-2635.0,683.0,-1892.0,-556.0,3
637,138.0,-622.0,-75.0,-4885.0,-587.0,-3295.0,436.0,-2327.0,-196.0,3
638,50.0,-759.0,-203.0,-4574.0,-388.0,-3698.0,5.0,-2811.0,-639.0,3
639,-72.0,-929.0,-357.0,-3860.0,366.0,-3570.0,-409.0,-3461.0,-1278.0,3
640,-234.0,-1110.0,-412.0,-2891.0,1225.0,-2919.0,-919.0,-4122.0,-1585.0,3
641,-339.0,-1175.0,-362.0,-1868.0,1295.0,-1832.0,-1269.0,-4349.0,-1446.0,3
642,-331.0,-1095.0,-249.0,-393.0,904.0,-716.0,-1315.0,-3978.0,-907.0,3
643,-283.0,-912.0,-172.0,1197.0,493.0,-30.0,-1138.0,-3438.0,-612.0,3
644,-202.0,-742.0,-131.0,2235.0,247.0,367.0,-855.0,-2891.0,-454.0,3
645,-154.0,-645.0,-123.0,2652.0,120.0,587.0,-595.0,-2465.0,-414.0,3
646,-116.0,-546.0,-135.0,2647.0,-24.0,781.0,-437.0,-2161.0,-483.0,3
647,-82.0,-485.0,-178.0,2395.0,-283.0,1027.0,-290.0,-1934.0,-636.0,3
648,-48.0,-432.0,-207.0,2052.0,-614.0,1232.0,-190.0,-1727.0,-744.0,3
649,-34.0,-386.0,-223.0,1752.0,-872.0,1286.0,-155.0,-1535.0,-813.0,3
650,-31.0,-327.0,-226.0,1551.0,-992.0,1206.0,-143.0,-1320.0,-829.0,3
651,-11.0,-262.0,-214.0,1409.0,-1019.0,1067.0,-79.0,-1108.0,-795.0,3
652,27.0,-211.0,-199.0,1245.0,-1032.0,904.0,55.0,-913.0,-734.0,3
653,71.0,-165.0,-174.0,950.0,-1047.0,776.0,221.0,-746.0,-642.0,3
654,102.0,-153.0,-163.0,672.0,-1022.0,652.0,341.0,-663.0,-569.0,3
655,117.0,-156.0,-151.0,398.0,-923.0,520.0,411.0,-670.0,-513.0,3
656,132.0,-184.0,-125.0,177.0,-742.0,385.0,468.0,-756.0,-423.0,3
657,147.0,-222.0,-96.0,79.0,-487.0,234.0,495.0,-874.0,-284.0,3
658,154.0,-261.0,-55.0,158.0,-183.0,78.0,539.0,-986.0,-123.0,3
659,153.0,-308.0,-7.0,429.0,119.0,-72.0,542.0,-1132.0,36.0,3
660,142.0,-347.0,20.0,843.0,359.0,-201.0,522.0,-1275.0,170.0,3
661,129.0,-370.0,27.0,1326.0,498.0,-335.0,483.0,-1399.0,200.0,3
662,113.0,-359.0,13.0,1770.0,551.0,-480.0,413.0,-1356.0,122.0,3
663,93.0,-310.0,-26.0,2088.0,553.0,-600.0,343.0,-1203.0,-5.0,3
664,77.0,-258.0,-52.0,2232.0,522.0,-645.0,291.0,-1035.0,-124.0,3
665,63.0,-198.0,-80.0,2188.0,479.0,-664.0,240.0,-854.0,-230.0,3
666,44.0,-152.0,-102.0,1937.0,466.0,-692.0,176.0,-679.0,-311.0,3
667,23.0,-107.0,-123.0,1633.0,476.0,-736.0,103.0,-519.0,-387.0,3
668,7.0,-67.0,-135.0,1292.0,484.0,-767.0,40.0,-370.0,-451.0,3
669,-9.0,-38.0,-138.0,952.0,486.0,-773.0,-17.0,-217.0,-484.0,3
670,-11.0,-28.0,-135.0,653.0,475.0,-745.0,-46.0,-157.0,-476.0,3
671,-13.0,-17.0,-124.0,417.0,469.0,-707.0,-42.0,-107.0,-418.0,3
672,1.0,-15.0,-91.0,282.0,473.0,-665.0,0.0,-78.0,-323.0,3
673,14.0,-17.0,-70.0,265.0,497.0,-630.0,62.0,-76.0,-202.0,3
674,32.0,-23.0,-38.0,360.0,546.0,-605.0,116.0,-75.0,-72.0,3
675,40.0,-20.0,-12.0,562.0,624.0,-602.0,135.0,-57.0,30.0,3
676,35.0,-14.0,8.0,850.0,719.0,-589.0,127.0,-38.0,104.0,3
677,20.0,-4.0,19.0,1190.0,814.0,-584.0,74.0,-3.0,151.0,3
678,-7.0,16.0,22.0,1523.0,890.0,-582.0,5.0,71.0,159.0,3
679,-33.0,38.0,16.0,1855.0,896.0,-586.0,-108.0,156.0,148.0,3
680,-73.0,69.0,6.0,2033.0,839.0,-584.0,-245.0,263.0,115.0,3
681,-108.0,100.0,-8.0,2113.0,721.0,-582.0,-377.0,356.0,58.0,3
682,-135.0,131.0,-27.0,2081.0,554.0,-566.0,-482.0,445.0,-26.0,3
683,-146.0,162.0,-47.0,1954.0,366.0,-540.0,-533.0,562.0,-111.0,3
684,-137.0,184.0,-64.0,1737.0,188.0,-495.0,-497.0,620.0,-193.0,3
685,-96.0,184.0,-92.0,1426.0,44.0,-445.0,-356.0,611.0,-282.0,3
686,-49.0,170.0,-128.0,1025.0,-67.0,-404.0,-178.0,547.0,-428.0,3
687,-16.0,148.0,-166.0,555.0,-162.0,-384.0,-65.0,458.0,-561.0,3
688,-9.0,149.0,-213.0,7.0,-224.0,-375.0,-17.0,429.0,-791.0,3
689,-12.0,167.0,-330.0,-695.0,-278.0,-406.0,8.0,469.0,-1269.0,3
690,-46.0,189.0,-465.0,-1549.0,-501.0,-496.0,-48.0,533.0,-1813.0,3
691,-100.0,184.0,-571.0,-2652.0,-1399.0,-604.0,-167.0,549.0,-2265.0,3
692,-159.0,142.0,-602.0,-3364.0,-2662.0,-697.0,-436.0,489.0,-2402.0,3
693,-252.0,82.0,-613.0,-3647.0,-3725.0,-698.0,-927.0,286.0,-2413.0,3
694,-315.0,-8.0,-571.0,-3772.0,-3949.0,-476.0,-1312.0,-59.0,-2292.0,3
695,-396.0,-131.0,-481.0,-4095.0,-3277.0,-24.0,-1643.0,-526.0,-1933.0,3
696,-462.0,-234.0,-437.0,-4729.0,-2124.0,597.0,-1950.0,-1218.0,-1572.0,3
697,-456.0,-383.0,-334.0,-5659.0,-1086.0,1305.0,-1791.0,-1701.0,-1149.0,3
698,-342.0,-579.0,-193.0,-6530.0,-548.0,2049.0,-1235.0,-2351.0,-639.0,3
699,-159.0,-795.0,-228.0,-6876.0,-677.0,2760.0,-462.0,-3072.0,-849.0,3
700,66.0,-946.0,-396.0,-6726.0,-1426.0,3132.0,361.0,-3518.0,-1496.0,3
701,224.0,-1025.0,-482.0,-6060.0,-2434.0,2712.0,847.0,-3657.0,-1816.0,3
702,339.0,-1067.0,-535.0,-4560.0,-3059.0,1602.0,1144.0,-3800.0,-2048.0,3
703,429.0,-1039.0,-588.0,-2554.0,-2949.0,80.0,1431.0,-3822.0,-2274.0,3
704,466.0,-954.0,-549.0,-300.0,-2241.0,-712.0,1673.0,-3600.0,-2184.0,3
705,459.0,-898.0,-523.0,1211.0,-1713.0,-1021.0,1685.0,-3421.0,-2019.0,3
706,411.0,-823.0,-467.0,2141.0,-1363.0,-1149.0,1519.0,-3220.0,-1808.0,3
707,363.0,-749.0,-364.0,2517.0,-1112.0,-1321.0,1359.0,-2946.0,-1431.0,3
708,307.0,-660.0,-247.0,2631.0,-988.0,-1564.0,1197.0,-2630.0,-995.0,3
709,232.0,-537.0,-149.0,2669.0,-1031.0,-1830.0,947.0,-2192.0,-507.0,3
710,156.0,-408.0,-84.0,2740.0,-1180.0,-1965.0,577.0,-1562.0,-267.0,3
711,89.0,-299.0,-68.0,2913.0,-1297.0,-1920.0,324.0,-1161.0,-172.0,3
712,47.0,-215.0,-71.0,3157.0,-1285.0,-1746.0,163.0,-860.0,-190.0,3
713,19.0,-163.0,-88.0,3340.0,-1145.0,-1549.0,30.0,-653.0,-263.0,3
714,-19.0,-116.0,-112.0,3326.0,-944.0,-1376.0,-93.0,-482.0,-376.0,3
715,-51.0,-67.0,-138.0,3041.0,-750.0,-1248.0,-225.0,-364.0,-470.0,3
716,-82.0,-42.0,-149.0,2499.0,-578.0,-1135.0,-342.0,-305.0,-509.0,3
717,-112.0,-42.0,-146.0,1609.0,-496.0,-1083.0,-435.0,-301.0,-515.0,3
718,-129.0,-58.0,-134.0,782.0,-456.0,-1061.0,-507.0,-339.0,-485.0,3
719,-138.0,-87.0,-127.0,-12.0,-437.0,-1072.0,-546.0,-437.0,-437.0,3
720,-144.0,-126.0,-120.0,-708.0,-426.0,-1094.0,-569.0,-551.0,-413.0,3
721,-144.0,-170.0,-123.0,-1273.0,-420.0,-1112.0,-572.0,-681.0,-408.0,3
722,-142.0,-197.0,-124.0,-1678.0,-421.0,-1105.0,-571.0,-798.0,-407.0,3
723,-139.0,-230.0,-116.0,-1896.0,-421.0,-1051.0,-560.0,-917.0,-370.0,3
724,-122.0,-258.0,-105.0,-1902.0,-404.0,-936.0,-498.0,-983.0,-335.0,3
725,-108.0,-279.0,-98.0,-1699.0,-361.0,-806.0,-446.0,-1039.0,-306.0,3
726,-87.0,-288.0,-89.0,-1339.0,-304.0,-698.0,-373.0,-1064.0,-265.0,3
727,-71.0,-281.0,-86.0,-876.0,-258.0,-635.0,-286.0,-1044.0,-258.0,3
728,-46.0,-263.0,-90.0,-378.0,-232.0,-597.0,-204.0,-973.0,-266.0,3
729,-18.0,-241.0,-99.0,113.0,-220.0,-575.0,-104.0,-912.0,-293.0,3
730,0.0,-231.0,-99.0,626.0,-214.0,-558.0,3.0,-870.0,-308.0,3
731,23.0,-215.0,-101.0,935.0,-217.0,-556.0,78.0,-840.0,-318.0,3
732,37.0,-198.0,-100.0,1125.0,-236.0,-557.0,129.0,-795.0,-313.0,3
733,41.0,-186.0,-97.0,1207.0,-284.0,-567.0,154.0,-743.0,-309.0,3
734,38.0,-169.0,-94.0,1217.0,-364.0,-579.0,151.0,-694.0,-296.0,3
735,29.0,-161.0,-86.0,1188.0,-471.0,-597.0,133.0,-659.0,-268.0,3
736,23.0,-149.0,-72.0,1146.0,-602.0,-604.0,102.0,-602.0,-224.0,3
737,12.0,-132.0,-66.0,1123.0,-754.0,-605.0,75.0,-542.0,-173.0,3
738,11.0,-124.0,-54.0,1134.0,-918.0,-603.0,56.0,-484.0,-137.0,3
739,3.0,-106.0,-48.0,1177.0,-1079.0,-608.0,38.0,-410.0,-109.0,3
740,-1.0,-80.0,-50.0,1256.0,-1217.0,-606.0,7.0,-321.0,-104.0,3
741,-2.0,-64.0,-41.0,1362.0,-1322.0,-593.0,4.0,-231.0,-98.0,3
742,-5.0,-36.0,-36.0,1486.0,-1400.0,-553.0,-15.0,-153.0,-77.0,3
743,1.0,-12.0,-37.0,1634.0,-1424.0,-497.0,5.0,-60.0,-61.0,3
744,8.0,12.0,-35.0,1735.0,-1414.0,-432.0,21.0,25.0,-55.0,3
745,12.0,38.0,-32.0,1800.0,-1372.0,-381.0,48.0,106.0,-49.0,3
746,18.0,65.0,-35.0,1817.0,-1302.0,-336.0,62.0,203.0,-50.0,3
747,19.0,88.0,-36.0,1786.0,-1212.0,-301.0,74.0,293.0,-56.0,3
748,19.0,108.0,-44.0,1696.0,-1122.0,-270.0,77.0,371.0,-92.0,3
749,13.0,127.0,-63.0,1532.0,-1052.0,-244.0,64.0,419.0,-158.0,3
750,3.0,126.0,-97.0,1274.0,-1024.0,-208.0,43.0,399.0,-329.0,3
751,0.0,115.0,-136.0,880.0,-1076.0,-188.0,56.0,328.0,-488.0,3
752,8.0,124.0,-185.0,344.0,-1237.0,-168.0,81.0,357.0,-672.0,3
753,27.0,152.0,-256.0,-273.0,-1464.0,-153.0,133.0,436.0,-942.0,3
754,72.0,188.0,-384.0,-924.0,-1627.0,-146.0,234.0,557.0,-1403.0,3
755,88.0,206.0,-543.0,-1722.0,-1465.0,-181.0,285.0,645.0,-2018.0,3
756,64.0,181.0,-623.0,-2304.0,-1080.0,-229.0,176.0,559.0,-2451.0,3
757,31.0,101.0,-606.0,-2683.0,-571.0,-316.0,48.0,317.0,-2379.0,3
758,21.0,19.0,-488.0,-2851.0,-49.0,-517.0,38.0,26.0,-1936.0,3
759,37.0,-71.0,-362.0,-2942.0,257.0,-788.0,136.0,-312.0,-1416.0,3
760,108.0,-154.0,-262.0,-3135.0,275.0,-1017.0,393.0,-652.0,-1042.0,3
761,193.0,-244.0,-216.0,-3474.0,75.0,-1218.0,714.0,-986.0,-820.0,3
762,236.0,-345.0,-199.0,-3890.0,-135.0,-1387.0,853.0,-1316.0,-727.0,3
763,221.0,-480.0,-213.0,-4253.0,-89.0,-1476.0,802.0,-1761.0,-709.0,3
764,182.0,-595.0,-236.0,-4446.0,269.0,-1528.0,584.0,-2442.0,-868.0,3
765,46.0,-737.0,-266.0,-4516.0,781.0,-1574.0,-13.0,-2918.0,-972.0,3
766,-146.0,-846.0,-255.0,-4453.0,1167.0,-1540.0,-697.0,-3236.0,-933.0,3
767,-296.0,-889.0,-223.0,-4079.0,1272.0,-1270.0,-1168.0,-3270.0,-817.0,3
768,-299.0,-852.0,-195.0,-2984.0,963.0,-895.0,-1116.0,-3099.0,-730.0,3
769,-254.0,-775.0,-187.0,-1675.0,386.0,-644.0,-960.0,-2824.0,-685.0,3
770,-188.0,-670.0,-220.0,-361.0,-162.0,-556.0,-736.0,-2506.0,-784.0,3
771,-136.0,-553.0,-265.0,652.0,-596.0,-595.0,-535.0,-2150.0,-959.0,3
772,-93.0,-453.0,-299.0,1308.0,-954.0,-615.0,-398.0,-1801.0,-1097.0,3
773,-76.0,-391.0,-317.0,1689.0,-1224.0,-514.0,-294.0,-1534.0,-1200.0,3
774,-51.0,-337.0,-323.0,1879.0,-1363.0,-344.0,-241.0,-1332.0,-1221.0,3
775,-51.0,-297.0,-312.0,1922.0,-1377.0,-193.0,-237.0,-1208.0,-1175.0,3
776,-57.0,-267.0,-281.0,1840.0,-1313.0,-69.0,-254.0,-1117.0,-1083.0,3
777,-51.0,-256.0,-244.0,1663.0,-1213.0,27.0,-237.0,-1051.0,-908.0,3
778,-28.0,-246.0,-203.0,1429.0,-1115.0,92.0,-137.0,-1022.0,-759.0,3
779,2.0,-249.0,-176.0,1173.0,-1038.0,95.0,-22.0,-1024.0,-631.0,3
780,25.0,-256.0,-145.0,931.0,-964.0,26.0,79.0,-1035.0,-516.0,3
781,42.0,-261.0,-123.0,707.0,-906.0,-67.0,141.0,-1057.0,-408.0,3
782,49.0,-273.0,-99.0,596.0,-847.0,-164.0,177.0,-1085.0,-305.0,3
783,49.0,-284.0,-75.0,563.0,-816.0,-263.0,183.0,-1117.0,-219.0,3
784,48.0,-301.0,-57.0,597.0,-817.0,-355.0,180.0,-1161.0,-151.0,3
785,45.0,-312.0,-51.0,675.0,-842.0,-439.0,155.0,-1197.0,-121.0,3
786,31.0,-322.0,-53.0,772.0,-872.0,-514.0,119.0,-1231.0,-121.0,3
787,28.0,-326.0,-53.0,860.0,-892.0,-579.0,85.0,-1263.0,-126.0,3
788,22.0,-325.0,-58.0,937.0,-893.0,-629.0,63.0,-1270.0,-146.0,3
789,20.0,-324.0,-63.0,1003.0,-872.0,-670.0,51.0,-1259.0,-159.0,3
790,14.0,-315.0,-64.0,1060.0,-833.0,-697.0,29.0,-1226.0,-172.0,3
791,5.0,-306.0,-66.0,1116.0,-787.0,-720.0,3.0,-1174.0,-187.0,3
792,-1.0,-287.0,-75.0,1171.0,-742.0,-736.0,-24.0,-1119.0,-217.0,3
793,-10.0,-268.0,-90.0,1193.0,-708.0,-750.0,-49.0,-1056.0,-271.0,3
794,-13.0,-245.0,-107.0,1135.0,-691.0,-759.0,-56.0,-990.0,-329.0,3
795,-7.0,-225.0,-111.0,1006.0,-668.0,-774.0,-44.0,-927.0,-371.0,3
796,-2.0,-212.0,-120.0,825.0,-630.0,-783.0,-21.0,-875.0,-389.0,3
797,8.0,-208.0,-116.0,615.0,-575.0,-793.0,-1.0,-854.0,-403.0,3
798,11.0,-206.0,-116.0,397.0,-501.0,-801.0,16.0,-848.0,-384.0,3
799,12.0,-206.0,-104.0,193.0,-424.0,-826.0,29.0,-851.0,-339.0,3
800,12.0,-207.0,-95.0,32.0,-356.0,-854.0,36.0,-847.0,-300.0,3
801,8.0,-205.0,-89.0,-85.0,-311.0,-884.0,38.0,-836.0,-275.0,3
802,6.0,-201.0,-83.0,-161.0,-295.0,-911.0,22.0,-825.0,-255.0,3
803,9.0,-202.0,-85.0,-194.0,-296.0,-935.0,23.0,-809.0,-268.0,3
804,13.0,-199.0,-93.0,-200.0,-286.0,-951.0,25.0,-791.0,-290.0,3
805,14.0,-194.0,-95.0,-186.0,-264.0,-968.0,42.0,-762.0,-310.0,3
806,10.0,-185.0,-98.0,-154.0,-227.0,-983.0,26.0,-741.0,-328.0,3
807,9.0,-179.0,-108.0,-116.0,-191.0,-998.0,20.0,-713.0,-339.0,3
808,7.0,-175.0,-99.0,-59.0,-144.0,-1000.0,7.0,-683.0,-322.0,3
809,6.0,-172.0,-95.0,35.0,-91.0,-994.0,0.0,-665.0,-292.0,3
810,2.0,-165.0,-81.0,182.0,-36.0,-976.0,-6.0,-642.0,-249.0,3
811,-4.0,-159.0,-64.0,387.0,20.0,-955.0,-18.0,-608.0,-194.0,3
812,-6.0,-152.0,-47.0,646.0,75.0,-918.0,-28.0,-576.0,-128.0,3
813,-8.0,-141.0,-44.0,947.0,124.0,-875.0,-37.0,-531.0,-86.0,3
814,-7.0,-125.0,-47.0,1268.0,154.0,-822.0,-16.0,-466.0,-88.0,3
815,1.0,-92.0,-62.0,1584.0,145.0,-770.0,14.0,-381.0,-168.0,3
816,6.0,-69.0,-94.0,1859.0,89.0,-727.0,35.0,-284.0,-285.0,3
817,2.0,-30.0,-123.0,2043.0,-13.0,-699.0,27.0,-168.0,-411.0,3
818,-11.0,13.0,-155.0,2094.0,-171.0,-683.0,-19.0,15.0,-549.0,3
819,-15.0,56.0,-181.0,1972.0,-317.0,-686.0,-37.0,153.0,-669.0,3
820,-23.0,97.0,-219.0,1717.0,-473.0,-694.0,-64.0,284.0,-807.0,3
821,-27.0,125.0,-250.0,1347.0,-640.0,-696.0,-87.0,370.0,-949.0,3
822,-30.0,131.0,-271.0,898.0,-821.0,-658.0,-87.0,404.0,-1034.0,3
823,-35.0,118.0,-286.0,430.0,-998.0,-588.0,-119.0,352.0,-1072.0,3
824,-46.0,91.0,-276.0,-35.0,-1137.0,-478.0,-167.0,229.0,-1064.0,3
825,-61.0,49.0,-258.0,-511.0,-1219.0,-341.0,-230.0,77.0,-972.0,3
826,-82.0,4.0,-229.0,-1009.0,-1252.0,-209.0,-312.0,-89.0,-858.0,3
827,-110.0,-36.0,-208.0,-1569.0,-1272.0,-101.0,-417.0,-247.0,-771.0,3
828,-136.0,-78.0,-200.0,-2179.0,-1293.0,-14.0,-525.0,-401.0,-734.0,3
829,-170.0,-121.0,-195.0,-2789.0,-1331.0,64.0,-643.0,-525.0,-714.0,3
830,-200.0,-167.0,-184.0,-3261.0,-1388.0,163.0,-744.0,-654.0,-667.0,3
831,-205.0,-222.0,-163.0,-3480.0,-1497.0,252.0,-785.0,-801.0,-566.0,3
832,-186.0,-286.0,-150.0,-3363.0,-1635.0,335.0,-726.0,-1045.0,-517.0,3
833,-161.0,-329.0,-148.0,-3032.0,-1802.0,398.0,-600.0,-1240.0,-512.0,3
834,-120.0,-374.0,-155.0,-2590.0,-1976.0,429.0,-449.0,-1400.0,-543.0,3
835,-75.0,-405.0,-174.0,-2114.0,-2153.0,407.0,-273.0,-1530.0,-617.0,3
836,-13.0,-425.0,-204.0,-1662.0,-2332.0,323.0,-62.0,-1603.0,-724.0,3
837,54.0,-431.0,-235.0,-1264.0,-2492.0,195.0,173.0,-1640.0,-839.0,3
838,122.0,-423.0,-245.0,-902.0,-2570.0,53.0,394.0,-1627.0,-905.0,3
839,162.0,-417.0,-254.0,-557.0,-2534.0,-88.0,548.0,-1599.0,-926.0,3
840,172.0,-417.0,-245.0,-231.0,-2380.0,-221.0,594.0,-1603.0,-909.0,3
841,166.0,-421.0,-232.0,47.0,-2146.0,-346.0,561.0,-1624.0,-845.0,3
842,142.0,-436.0,-213.0,278.0,-1899.0,-493.0,490.0,-1655.0,-746.0,3
843,112.0,-429.0,-193.0,477.0,-1644.0,-730.0,385.0,-1658.0,-693.0,3
844,85.0,-419.0,-186.0,669.0,-1477.0,-958.0,293.0,-1626.0,-683.0,3
845,70.0,-400.0,-189.0,781.0,-1374.0,-1188.0,246.0,-1567.0,-683.0,3
846,56.0,-379.0,-198.0,850.0,-1362.0,-1402.0,217.0,-1497.0,-706.0,3
847,49.0,-359.0,-202.0,874.0,-1429.0,-1602.0,194.0,-1416.0,-736.0,3
848,44.0,-337.0,-207.0,874.0,-1522.0,-1771.0,153.0,-1335.0,-749.0,3
849,36.0,-316.0,-201.0,877.0,-1584.0,-1896.0,118.0,-1247.0,-720.0,3
850,32.0,-301.0,-186.0,908.0,-1587.0,-1960.0,100.0,-1179.0,-667.0,3
851,26.0,-285.0,-167.0,969.0,-1547.0,-1968.0,79.0,-1124.0,-580.0,3
852,23.0,-275.0,-145.0,1056.0,-1488.0,-1926.0,55.0,-1078.0,-497.0,3
853,15.0,-262.0,-124.0,1141.0,-1429.0,-1844.0,38.0,-1039.0,-426.0,3
854,10.0,-253.0,-114.0,1204.0,-1360.0,-1748.0,24.0,-1018.0,-373.0,3
855,16.0,-250.0,-102.0,1229.0,-1269.0,-1646.0,21.0,-1000.0,-324.0,3
856,19.0,-248.0,-93.0,1205.0,-1130.0,-1538.0,39.0,-986.0,-286.0,3
857,29.0,-249.0,-83.0,1106.0,-1001.0,-1466.0,73.0,-990.0,-251.0,3
858,34.0,-246.0,-81.0,979.0,-875.0,-1407.0,106.0,-993.0,-230.0,3
859,41.0,-247.0,-81.0,818.0,-765.0,-1367.0,140.0,-989.0,-239.0,3
860,47.0,-238.0,-83.0,627.0,-675.0,-1335.0,160.0,-978.0,-258.0,3
861,53.0,-231.0,-97.0,411.0,-614.0,-1302.0,186.0,-941.0,-291.0,3
862,56.0,-223.0,-101.0,173.0,-575.0,-1255.0,201.0,-924.0,-328.0,3
863,56.0,-214.0,-115.0,-81.0,-543.0,-1219.0,203.0,-903.0,-377.0,3
864,50.0,-211.0,-127.0,-357.0,-522.0,-1185.0,189.0,-892.0,-410.0,3
865,46.0,-217.0,-127.0,-643.0,-502.0,-1157.0,146.0,-894.0,-428.0,3
866,32.0,-223.0,-127.0,-913.0,-482.0,-1131.0,114.0,-912.0,-440.0,3
867,29.0,-233.0,-128.0,-1140.0,-459.0,-1121.0,87.0,-941.0,-433.0,3
868,18.0,-247.0,-126.0,-1311.0,-424.0,-1102.0,58.0,-989.0,-427.0,3
869,15.0,-262.0,-130.0,-1431.0,-350.0,-1062.0,27.0,-1042.0,-428.0,3
870,13.0,-277.0,-127.0,-1450.0,-253.0,-998.0,10.0,-1084.0,-427.0,3
871,11.0,-289.0,-129.0,-1380.0,-134.0,-922.0,3.0,-1111.0,-425.0,3
872,7.0,-292.0,-126.0,-1218.0,-13.0,-840.0,4.0,-1123.0,-414.0,3
873,3.0,-286.0,-116.0,-973.0,91.0,-755.0,-25.0,-1114.0,-386.0,3
874,-10.0,-289.0,-112.0,-669.0,166.0,-659.0,-56.0,-1099.0,-353.0,3
875,-19.0,-284.0,-103.0,-349.0,201.0,-543.0,-100.0,-1081.0,-324.0,3
876,-33.0,-271.0,-95.0,-56.0,203.0,-397.0,-135.0,-1056.0,-300.0,3
877,-34.0,-262.0,-84.0,187.0,176.0,-227.0,-155.0,-1019.0,-257.0,3
878,-37.0,-250.0,-72.0,368.0,129.0,-54.0,-146.0,-964.0,-216.0,3
879,-26.0,-231.0,-67.0,493.0,72.0,106.0,-113.0,-905.0,-192.0,3
880,-16.0,-207.0,-65.0,562.0,12.0,239.0,-76.0,-836.0,-186.0,3
881,-7.0,-182.0,-66.0,580.0,-57.0,371.0,-29.0,-739.0,-193.0,3
882,3.0,-153.0,-66.0,546.0,-119.0,456.0,18.0,-649.0,-200.0,3
883,14.0,-130.0,-68.0,485.0,-185.0,523.0,53.0,-548.0,-209.0,3
884,22.0,-126.0,-72.0,404.0,-260.0,577.0,84.0,-476.0,-221.0,3
885,26.0,-100.0,-80.0,319.0,-335.0,628.0,97.0,-418.0,-242.0,3
886,37.0,-85.0,-98.0,238.0,-398.0,676.0,150.0,-374.0,-325.0,3
887,59.0,-83.0,-128.0,154.0,-439.0,719.0,237.0,-350.0,-440.0,3
888,93.0,-71.0,-155.0,65.0,-454.0,753.0,357.0,-329.0,-554.0,3
889,126.0,-65.0,-179.0,-20.0,-445.0,773.0,455.0,-293.0,-644.0,3
890,138.0,-49.0,-193.0,-83.0,-401.0,767.0,506.0,-234.0,-706.0,3
891,131.0,-32.0,-197.0,-99.0,-328.0,735.0,488.0,-161.0,-725.0,3
892,118.0,-16.0,-191.0,-66.0,-257.0,681.0,439.0,-79.0,-699.0,3
893,100.0,0.0,-181.0,16.0,-244.0,606.0,391.0,-15.0,-657.0,3
894,76.0,9.0,-170.0,139.0,-366.0,542.0,340.0,23.0,-616.0,3
895,65.0,3.0,-168.0,322.0,-588.0,465.0,288.0,12.0,-614.0,3
896,49.0,-7.0,-172.0,487.0,-885.0,361.0,239.0,-34.0,-631.0,3
897,44.0,-23.0,-188.0,647.0,-1195.0,234.0,217.0,-100.0,-679.0,3
898,41.0,-32.0,-217.0,787.0,-1442.0,100.0,167.0,-151.0,-766.0,3
899,45.0,-37.0,-241.0,883.0,-1562.0,7.0,145.0,-179.0,-879.0,3
900,51.0,-41.0,-252.0,928.0,-1540.0,-54.0,168.0,-202.0,-940.0,3
901,59.0,-45.0,-261.0,914.0,-1393.0,-117.0,205.0,-234.0,-977.0,3
902,68.0,-51.0,-264.0,824.0,-1151.0,-203.0,217.0,-275.0,-990.0,3
903,70.0,-55.0,-271.0,655.0,-840.0,-299.0,212.0,-281.0,-1005.0,3
904,67.0,-51.0,-278.0,415.0,-490.0,-385.0,195.0,-289.0,-1032.0,3
905,52.0,-58.0,-294.0,108.0,-123.0,-451.0,156.0,-324.0,-1091.0,3
906,33.0,-71.0,-308.0,-282.0,227.0,-529.0,96.0,-386.0,-1152.0,3
907,-2.0,-98.0,-310.0,-859.0,539.0,-594.0,-9.0,-484.0,-1187.0,3
908,-40.0,-137.0,-298.0,-1413.0,651.0,-649.0,-135.0,-628.0,-1153.0,3
909,-65.0,-181.0,-283.0,-1980.0,600.0,-683.0,-246.0,-810.0,-1062.0,3
910,-93.0,-251.0,-247.0,-2517.0,386.0,-710.0,-332.0,-1046.0,-955.0,3
911,-118.0,-328.0,-221.0,-2995.0,29.0,-709.0,-394.0,-1317.0,-827.0,3
912,-129.0,-405.0,-190.0,-3391.0,-434.0,-658.0,-446.0,-1587.0,-693.0,3
913,-121.0,-485.0,-180.0,-3662.0,-942.0,-543.0,-449.0,-1927.0,-633.0,3
914,-106.0,-569.0,-180.0,-3766.0,-1389.0,-385.0,-420.0,-2183.0,-632.0,3
915,-85.0,-641.0,-202.0,-3668.0,-1669.0,-215.0,-382.0,-2427.0,-691.0,3
916,-74.0,-692.0,-224.0,-3384.0,-1743.0,-60.0,-353.0,-2597.0,-774.0,3
917,-74.0,-702.0,-233.0,-2960.0,-1679.0,105.0,-345.0,-2638.0,-850.0,3
918,-75.0,-688.0,-241.0,-2418.0,-1576.0,278.0,-337.0,-2568.0,-878.0,3
919,-59.0,-655.0,-241.0,-1756.0,-1484.0,467.0,-278.0,-2445.0,-878.0,3
920,-38.0,-612.0,-235.0,-844.0,-1445.0,553.0,-182.0,-2282.0,-859.0,3
921,-10.0,-567.0,-230.0,-74.0,-1428.0,574.0,-72.0,-2119.0,-848.0,3
922,11.0,-512.0,-227.0,620.0,-1440.0,555.0,7.0,-1959.0,-838.0,3
923,20.0,-467.0,-218.0,1201.0,-1466.0,523.0,49.0,-1794.0,-808.0,3
924,19.0,-435.0,-209.0,1677.0,-1493.0,486.0,48.0,-1664.0,-763.0,3
925,9.0,-398.0,-194.0,2054.0,-1512.0,456.0,22.0,-1559.0,-710.0,3
926,-7.0,-378.0,-177.0,2340.0,-1546.0,433.0,-12.0,-1444.0,-632.0,3
927,-9.0,-351.0,-174.0,2533.0,-1597.0,418.0,-58.0,-1349.0,-603.0,3
928,-22.0,-319.0,-163.0,2640.0,-1659.0,395.0,-106.0,-1239.0,-562.0,3
929,-34.0,-286.0,-155.0,2663.0,-1728.0,377.0,-134.0,-1126.0,-529.0,3
930,-35.0,-255.0,-147.0,2616.0,-1797.0,375.0,-167.0,-1025.0,-500.0,3
931,-43.0,-227.0,-138.0,2508.0,-1837.0,404.0,-181.0,-924.0,-476.0,3
932,-44.0,-206.0,-133.0,2351.0,-1830.0,439.0,-191.0,-854.0,-463.0,3
933,-47.0,-194.0,-129.0,2115.0,-1790.0,485.0,-192.0,-808.0,-440.0,3
934,-45.0,-184.0,-126.0,1877.0,-1747.0,535.0,-192.0,-774.0,-425.0,3
935,-34.0,-182.0,-120.0,1611.0,-1700.0,592.0,-158.0,-753.0,-402.0,3
936,-14.0,-179.0,-117.0,1349.0,-1633.0,631.0,-86.0,-743.0,-380.0,3
937,16.0,-177.0,-108.0,1113.0,-1524.0,643.0,17.0,-733.0,-360.0,3
938,42.0,-176.0,-103.0,926.0,-1363.0,609.0,113.0,-719.0,-338.0,3
939,64.0,-175.0,-87.0,799.0,-1173.0,546.0,204.0,-702.0,-258.0,3
940,81.0,-168.0,-77.0,738.0,-990.0,451.0,294.0,-681.0,-241.0,3
941,94.0,-160.0,-87.0,708.0,-851.0,334.0,342.0,-657.0,-249.0,3
942,102.0,-147.0,-96.0,668.0,-774.0,195.0,376.0,-611.0,-294.0,3
943,104.0,-133.0,-106.0,578.0,-748.0,65.0,389.0,-564.0,-358.0,3
944,113.0,-121.0,-118.0,431.0,-750.0,-81.0,422.0,-519.0,-401.0,3
945,126.0,-108.0,-120.0,209.0,-759.0,-205.0,474.0,-487.0,-424.0,3
946,122.0,-103.0,-122.0,24.0,-732.0,-339.0,497.0,-458.0,-399.0,3
947,144.0,-114.0,-101.0,-111.0,-641.0,-457.0,516.0,-462.0,-325.0,3
948,137.0,-130.0,-67.0,-143.0,-500.0,-558.0,511.0,-506.0,-206.0,3
949,133.0,-151.0,-43.0,-32.0,-326.0,-617.0,482.0,-550.0,-100.0,3
950,120.0,-151.0,-40.0,194.0,-143.0,-647.0,437.0,-577.0,-71.0,3
951,103.0,-133.0,-50.0,452.0,17.0,-662.0,388.0,-535.0,-103.0,3
952,85.0,-114.0,-47.0,684.0,126.0,-680.0,320.0,-438.0,-101.0,3
953,58.0,-83.0,-43.0,896.0,170.0,-704.0,244.0,-294.0,-86.0,3
954,29.0,-49.0,-49.0,1083.0,166.0,-741.0,103.0,-171.0,-117.0,3
955,-6.0,-15.0,-63.0,1220.0,139.0,-769.0,-20.0,-71.0,-191.0,3
956,-41.0,3.0,-91.0,1297.0,100.0,-792.0,-151.0,-5.0,-293.0,3
957,-77.0,17.0,-119.0,1303.0,30.0,-787.0,-290.0,42.0,-402.0,3
958,-107.0,28.0,-148.0,1230.0,-37.0,-768.0,-387.0,62.0,-516.0,3
959,-116.0,34.0,-180.0,1136.0,-87.0,-736.0,-443.0,80.0,-624.0,3
960,-109.0,40.0,-199.0,1036.0,-88.0,-697.0,-428.0,103.0,-727.0,3
961,-81.0,51.0,-235.0,925.0,13.0,-644.0,-359.0,132.0,-866.0,3
962,-54.0,55.0,-272.0,783.0,251.0,-580.0,-263.0,147.0,-1003.0,3
963,-36.0,55.0,-292.0,584.0,581.0,-501.0,-190.0,142.0,-1094.0,3
964,-36.0,46.0,-290.0,339.0,894.0,-426.0,-171.0,105.0,-1098.0,3
965,-51.0,26.0,-261.0,71.0,1080.0,-344.0,-182.0,39.0,-1027.0,3
966,-63.0,-9.0,-228.0,-185.0,1102.0,-248.0,-225.0,-72.0,-841.0,3
967,-83.0,-54.0,-189.0,-412.0,1008.0,-123.0,-314.0,-261.0,-713.0,3
968,-119.0,-97.0,-183.0,-623.0,852.0,7.0,-418.0,-421.0,-657.0,3
969,-145.0,-118.0,-186.0,-851.0,649.0,172.0,-542.0,-540.0,-706.0,3
970,-179.0,-134.0,-220.0,-1143.0,309.0,315.0,-650.0,-618.0,-822.0,3
971,-206.0,-148.0,-245.0,-1579.0,-94.0,459.0,-731.0,-666.0,-915.0,3
972,-204.0,-168.0,-252.0,-1932.0,-599.0,558.0,-730.0,-700.0,-965.0,3
973,-161.0,-195.0,-247.0,-2164.0,-1143.0,588.0,-585.0,-772.0,-943.0,3
974,-83.0,-226.0,-248.0,-2226.0,-1603.0,534.0,-364.0,-869.0,-922.0,3
975,-3.0,-266.0,-257.0,-2187.0,-1831.0,479.0,-102.0,-1039.0,-947.0,3
976,73.0,-325.0,-277.0,-2175.0,-1782.0,499.0,172.0,-1274.0,-1015.0,3
977,118.0,-388.0,-291.0,-2258.0,-1530.0,598.0,357.0,-1557.0,-1086.0,3
978,147.0,-474.0,-296.0,-2388.0,-1137.0,690.0,458.0,-1869.0,-1097.0,3
979,144.0,-566.0,-281.0,-2469.0,-637.0,705.0,448.0,-2174.0,-1045.0,3
980,118.0,-637.0,-247.0,-2409.0,-135.0,629.0,367.0,-2452.0,-897.0,3
981,90.0,-687.0,-214.0,-2146.0,287.0,522.0,246.0,-2595.0,-762.0,3
982,85.0,-708.0,-186.0,-1700.0,674.0,389.0,262.0,-2664.0,-661.0,3
983,97.0,-708.0,-181.0,-1025.0,875.0,238.0,314.0,-2658.0,-640.0,3
984,103.0,-682.0,-189.0,-437.0,963.0,31.0,354.0,-2580.0,-666.0,3
985,104.0,-640.0,-203.0,126.0,972.0,-191.0,358.0,-2440.0,-707.0,3
986,105.0,-600.0,-206.0,640.0,953.0,-384.0,355.0,-2269.0,-734.0,3
987,100.0,-550.0,-202.0,1086.0,928.0,-521.0,343.0,-2093.0,-729.0,3
988,97.0,-503.0,-200.0,1452.0,907.0,-599.0,342.0,-1932.0,-704.0,3
989,103.0,-456.0,-181.0,1733.0,907.0,-625.0,349.0,-1764.0,-648.0,3
990,99.0,-410.0,-151.0,1946.0,946.0,-639.0,352.0,-1596.0,-581.0,3
991,101.0,-357.0,-149.0,2116.0,1035.0,-655.0,342.0,-1417.0,-509.0,3
992,97.0,-305.0,-132.0,2252.0,1148.0,-676.0,333.0,-1235.0,-464.0,3
993,88.0,-260.0,-120.0,2347.0,1265.0,-686.0,317.0,-1078.0,-402.0,3
994,87.0,-241.0,-113.0,2385.0,1375.0,-681.0,296.0,-931.0,-356.0,3
995,79.0,-215.0,-105.0,2348.0,1490.0,-671.0,270.0,-870.0,-326.0,3
996,65.0,-196.0,-97.0,2188.0,1575.0,-661.0,229.0,-822.0,-305.0,3
997,49.0,-180.0,-99.0,1971.0,1643.0,-638.0,177.0,-771.0,-312.0,3
998,28.0,-166.0,-113.0,1694.0,1675.0,-595.0,107.0,-720.0,-359.0,3
999,-10.0,-152.0,-126.0,1390.0,1647.0,-534.0,-16.0,-673.0,-424.0,3
1000,-50.0,-137.0,-142.0,1071.0,1555.0,-467.0,-158.0,-634.0,-500.0,3
1001,-77.0,-124.0,-155.0,735.0,1415.0,-396.0,-274.0,-564.0,-547.0,3
1002,-103.0,-104.0,-159.0,390.0,1246.0,-326.0,-362.0,-491.0,-557.0,3
1003,-115.0,-95.0,-158.0,52.0,1082.0,-258.0,-432.0,-441.0,-544.0,3
1004,-132.0,-82.0,-133.0,-272.0,927.0,-176.0,-492.0,-383.0,-480.0,3
1005,-143.0,-77.0,-119.0,-560.0,767.0,-58.0,-531.0,-354.0,-430.0,3
1006,-150.0,-76.0,-116.0,-805.0,589.0,79.0,-563.0,-355.0,-398.0,3
1007,-150.0,-90.0,-115.0,-1015.0,397.0,263.0,-562.0,-389.0,-384.0,3
1008,-145.0,-103.0,-106.0,-1233.0,161.0,414.0,-544.0,-451.0,-353.0,3
1009,-137.0,-118.0,-90.0,-1364.0,-25.0,560.0,-519.0,-489.0,-301.0,3
1010,-122.0,-132.0,-63.0,-1403.0,-172.0,677.0,-478.0,-519.0,-199.0,3
1011,-111.0,-145.0,-43.0,-1298.0,-273.0,763.0,-438.0,-539.0,-82.0,3
1012,-102.0,-154.0,-2.0,-1035.0,-333.0,816.0,-385.0,-535.0,41.0,3
1013,-84.0,-148.0,10.0,-646.0,-357.0,861.0,-328.0,-513.0,117.0,3
1014,-63.0,-133.0,23.0,-194.0,-360.0,885.0,-250.0,-458.0,165.0,3
1015,-40.0,-105.0,26.0,252.0,-346.0,896.0,-169.0,-373.0,177.0,3
1016,-16.0,-70.0,25.0,633.0,-321.0,897.0,-86.0,-274.0,174.0,3
1017,5.0,-34.0,22.0,918.0,-292.0,905.0,3.0,-155.0,167.0,3
1018,28.0,-4.0,19.0,1108.0,-267.0,905.0,95.0,-54.0,159.0,3
1019,49.0,24.0,14.0,1198.0,-255.0,900.0,179.0,33.0,139.0,3
1020,64.0,35.0,13.0,1193.0,-247.0,878.0,249.0,106.0,131.0,3
1021,80.0,49.0,13.0,1091.0,-260.0,851.0,316.0,154.0,119.0,3
1022,93.0,54.0,2.0,964.0,-295.0,813.0,365.0,158.0,76.0,3
1023,101.0,48.0,-40.0,809.0,-347.0,776.0,398.0,123.0,-105.0,3
1024,115.0,31.0,-102.0,629.0,-405.0,741.0,450.0,62.0,-338.0,3
1025,139.0,19.0,-135.0,434.0,-480.0,716.0,546.0,17.0,-476.0,3
1026,166.0,20.0,-160.0,258.0,-573.0,686.0,637.0,21.0,-562.0,3
1027,180.0,30.0,-198.0,130.0,-658.0,654.0,695.0,69.0,-697.0,3
1028,195.0,52.0,-248.0,34.0,-681.0,600.0,739.0,118.0,-895.0,3
1029,198.0,60.0,-283.0,-78.0,-648.0,535.0,760.0,179.0,-1085.0,3
1030,176.0,74.0,-324.0,-222.0,-650.0,465.0,708.0,215.0,-1228.0,3
1031,145.0,67.0,-337.0,-382.0,-730.0,420.0,564.0,207.0,-1279.0,3
1032,108.0,32.0,-297.0,-520.0,-787.0,389.0,404.0,107.0,-1141.0,3
1033,82.0,-25.0,-255.0,-623.0,-719.0,282.0,289.0,-111.0,-974.0,3
1034,88.0,-86.0,-243.0,-767.0,-525.0,75.0,265.0,-345.0,-876.0,3
1035,129.0,-137.0,-254.0,-990.0,-220.0,-212.0,430.0,-622.0,-926.0,3
1036,174.0,-186.0,-279.0,-1347.0,95.0,-575.0,609.0,-799.0,-1033.0,3
1037,200.0,-218.0,-296.0,-1746.0,353.0,-956.0,724.0,-927.0,-1118.0,3
1038,197.0,-242.0,-297.0,-2054.0,571.0,-1291.0,705.0,-977.0,-1118.0,3
1039,138.0,-262.0,-272.0,-2151.0,762.0,-1510.0,470.0,-1037.0,-1017.0,3
1040,53.0,-300.0,-247.0,-2042.0,908.0,-1563.0,176.0,-1163.0,-927.0,3
1041,-44.0,-360.0,-252.0,-1848.0,1004.0,-1464.0,-191.0,-1406.0,-942.0,3
1042,-149.0,-428.0,-309.0,-1791.0,1065.0,-1268.0,-583.0,-1717.0,-1110.0,3
1043,-248.0,-531.0,-358.0,-2060.0,1086.0,-995.0,-943.0,-2124.0,-1341.0,3
1044,-297.0,-677.0,-355.0,-2670.0,999.0,-623.0,-1150.0,-2612.0,-1377.0,3
1045,-273.0,-834.0,-304.0,-3339.0,734.0,-91.0,-1108.0,-3157.0,-1210.0,3
1046,-221.0,-921.0,-246.0,-3821.0,273.0,198.0,-879.0,-3535.0,-917.0,3
1047,-169.0,-963.0,-166.0,-3784.0,-75.0,296.0,-695.0,-3640.0,-611.0,3
1048,-148.0,-920.0,-123.0,-3302.0,-343.0,385.0,-615.0,-3362.0,-393.0,3
1049,-138.0,-827.0,-128.0,-2374.0,-568.0,597.0,-554.0,-2981.0,-428.0,3
1050,-119.0,-725.0,-165.0,-1123.0,-764.0,880.0,-491.0,-2622.0,-567.0,3
1051,-89.0,-630.0,-190.0,189.0,-918.0,1181.0,-385.0,-2305.0,-680.0,3
1052,-52.0,-541.0,-203.0,1337.0,-995.0,1421.0,-259.0,-2022.0,-718.0,3
1053,-16.0,-456.0,-202.0,2211.0,-963.0,1546.0,-133.0,-1758.0,-717.0,3
1054,7.0,-388.0,-182.0,2794.0,-843.0,1506.0,-15.0,-1497.0,-618.0,3
1055,21.0,-322.0,-144.0,3142.0,-711.0,1358.0,47.0,-1241.0,-496.0,3
1056,15.0,-257.0,-124.0,3313.0,-630.0,1189.0,40.0,-1032.0,-423.0,3
1057,-6.0,-218.0,-128.0,3315.0,-599.0,1063.0,-23.0,-903.0,-421.0,3
1058,-34.0,-193.0,-127.0,3112.0,-625.0,956.0,-120.0,-839.0,-416.0,3
1059,-59.0,-172.0,-108.0,2621.0,-715.0,901.0,-205.0,-772.0,-372.0,3
1060,-73.0,-161.0,-97.0,2109.0,-872.0,877.0,-262.0,-715.0,-314.0,3
1061,-70.0,-165.0,-98.0,1603.0,-1047.0,890.0,-266.0,-709.0,-306.0,3
1062,-43.0,-184.0,-101.0,1156.0,-1187.0,906.0,-177.0,-760.0,-316.0,3
1063,-10.0,-199.0,-102.0,802.0,-1252.0,902.0,-19.0,-831.0,-312.0,3
1064,41.0,-222.0,-108.0,557.0,-1238.0,840.0,141.0,-895.0,-333.0,3
1065,67.0,-238.0,-109.0,399.0,-1161.0,711.0,237.0,-942.0,-356.0,3
1066,88.0,-248.0,-107.0,320.0,-1048.0,550.0,301.0,-968.0,-354.0,3
1067,98.0,-247.0,-110.0,344.0,-929.0,393.0,336.0,-940.0,-355.0,3
1068,107.0,-236.0,-119.0,473.0,-836.0,251.0,368.0,-906.0,-390.0,3
1069,115.0,-210.0,-157.0,667.0,-763.0,132.0,401.0,-832.0,-527.0,3
1070,122.0,-176.0,-201.0,809.0,-688.0,-5.0,430.0,-743.0,-700.0,3
1071,123.0,-143.0,-226.0,746.0,-566.0,-128.0,443.0,-634.0,-828.0,3
1072,123.0,-107.0,-232.0,497.0,-431.0,-269.0,452.0,-512.0,-865.0,3
1073,132.0,-79.0,-223.0,146.0,-282.0,-419.0,472.0,-414.0,-841.0,3
1074,140.0,-68.0,-192.0,-222.0,-128.0,-576.0,504.0,-339.0,-732.0,3
1075,143.0,-63.0,-153.0,-513.0,30.0,-718.0,515.0,-283.0,-537.0,3
1076,138.0,-68.0,-102.0,-654.0,188.0,-839.0,497.0,-276.0,-334.0,3
1077,124.0,-77.0,-53.0,-613.0,339.0,-927.0,466.0,-289.0,-148.0,3
1078,104.0,-82.0,-21.0,-410.0,471.0,-981.0,385.0,-294.0,-7.0,3
1079,72.0,-79.0,0.0,-97.0,562.0,-1003.0,287.0,-292.0,69.0,3
1080,44.0,-73.0,7.0,253.0,608.0,-1005.0,151.0,-242.0,101.0,3
1081,-5.0,-55.0,5.0,609.0,626.0,-988.0,-5.0,-190.0,102.0,3
1082,-41.0,-32.0,1.0,937.0,623.0,-962.0,-144.0,-118.0,86.0,3
1083,-68.0,-16.0,-6.0,1227.0,579.0,-910.0,-244.0,-54.0,56.0,3
1084,-85.0,-1.0,-31.0,1503.0,504.0,-858.0,-310.0,-6.0,-35.0,3
1085,-99.0,8.0,-65.0,1653.0,402.0,-795.0,-360.0,15.0,-164.0,3
1086,-104.0,14.0,-113.0,1717.0,292.0,-728.0,-391.0,36.0,-324.0,3
1087,-104.0,28.0,-171.0,1697.0,194.0,-657.0,-407.0,55.0,-535.0,3
1088,-97.0,40.0,-217.0,1592.0,136.0,-585.0,-384.0,95.0,-843.0,3
1089,-76.0,56.0,-295.0,1419.0,157.0,-494.0,-330.0,166.0,-1154.0,3
1090,-63.0,76.0,-369.0,1197.0,322.0,-400.0,-297.0,206.0,-1422.0,3
1091,-57.0,82.0,-399.0,942.0,645.0,-324.0,-268.0,240.0,-1549.0,3
1092,-50.0,80.0,-364.0,686.0,987.0,-275.0,-205.0,226.0,-1407.0,3
1093,-44.0,63.0,-288.0,443.0,1162.0,-234.0,-147.0,170.0,-1115.0,3
1094,-49.0,40.0,-229.0,164.0,1132.0,-175.0,-152.0,63.0,-878.0,3
1095,-78.0,6.0,-197.0,-227.0,969.0,-68.0,-244.0,-78.0,-739.0,3
1096,-127.0,-35.0,-193.0,-857.0,704.0,49.0,-418.0,-218.0,-712.0,3
1097,-182.0,-59.0,-193.0,-1463.0,473.0,239.0,-679.0,-337.0,-729.0,3
1098,-258.0,-97.0,-203.0,-2032.0,229.0,513.0,-934.0,-443.0,-723.0,3
1099,-286.0,-140.0,-188.0,-2436.0,-94.0,825.0,-1050.0,-565.0,-697.0,3
1100,-269.0,-198.0,-193.0,-2603.0,-574.0,1054.0,-981.0,-752.0,-710.0,3
1101,-198.0,-261.0,-239.0,-2627.0,-1138.0,1133.0,-766.0,-999.0,-853.0,3
1102,-85.0,-317.0,-287.0,-2696.0,-1609.0,1076.0,-420.0,-1294.0,-1076.0,3
1103,49.0,-370.0,-319.0,-2904.0,-1836.0,921.0,128.0,-1518.0,-1203.0,3
1104,163.0,-442.0,-343.0,-3243.0,-1770.0,711.0,500.0,-1772.0,-1278.0,3
1105,217.0,-496.0,-350.0,-3664.0,-1445.0,484.0,742.0,-2057.0,-1279.0,3
1106,236.0,-573.0,-316.0,-4058.0,-943.0,307.0,775.0,-2297.0,-1156.0,3
1107,200.0,-648.0,-269.0,-4244.0,-344.0,228.0,637.0,-2485.0,-976.0,3
1108,161.0,-716.0,-217.0,-4055.0,426.0,210.0,476.0,-2657.0,-765.0,3
1109,146.0,-760.0,-190.0,-3247.0,1046.0,144.0,446.0,-2778.0,-656.0,3
1110,157.0,-768.0,-176.0,-2233.0,1522.0,-49.0,523.0,-2804.0,-602.0,3
1111,166.0,-736.0,-179.0,-1132.0,1743.0,-317.0,602.0,-2738.0,-608.0,3
1112,166.0,-688.0,-189.0,-128.0,1698.0,-549.0,627.0,-2598.0,-665.0,3
1113,175.0,-628.0,-202.0,696.0,1527.0,-688.0,633.0,-2422.0,-716.0,3
1114,185.0,-589.0,-201.0,1359.0,1398.0,-762.0,666.0,-2235.0,-716.0,3
1115,189.0,-532.0,-192.0,1898.0,1370.0,-823.0,693.0,-2063.0,-674.0,3
1116,175.0,-484.0,-179.0,2306.0,1410.0,-885.0,621.0,-1834.0,-615.0,3
1117,158.0,-430.0,-153.0,2591.0,1487.0,-916.0,557.0,-1654.0,-529.0,3
1118,144.0,-369.0,-133.0,2774.0,1574.0,-898.0,516.0,-1447.0,-451.0,3
1119,133.0,-311.0,-112.0,2883.0,1664.0,-828.0,498.0,-1232.0,-376.0,3
1120,138.0,-267.0,-114.0,2954.0,1780.0,-750.0,495.0,-1070.0,-348.0,3
1121,130.0,-227.0,-116.0,2978.0,1955.0,-742.0,479.0,-947.0,-364.0,3
1122,114.0,-204.0,-134.0,2912.0,2085.0,-794.0,405.0,-836.0,-438.0,3
1123,57.0,-173.0,-157.0,2754.0,2151.0,-851.0,223.0,-724.0,-550.0,3
1124,-27.0,-147.0,-192.0,2498.0,2107.0,-862.0,-86.0,-676.0,-670.0,3
1125,-120.0,-144.0,-212.0,2128.0,1973.0,-791.0,-429.0,-658.0,-766.0,3
1126,-190.0,-141.0,-208.0,1670.0,1811.0,-669.0,-715.0,-641.0,-769.0,3
1127,-236.0,-127.0,-223.0,1198.0,1673.0,-562.0,-878.0,-600.0,-805.0,3
1128,-270.0,-98.0,-230.0,694.0,1545.0,-498.0,-1015.0,-502.0,-858.0,3
1129,-280.0,-74.0,-229.0,144.0,1392.0,-424.0,-1078.0,-391.0,-846.0,3
1130,-284.0,-56.0,-226.0,-410.0,1196.0,-309.0,-1084.0,-306.0,-843.0,3
1131,-261.0,-50.0,-222.0,-927.0,966.0,-136.0,-964.0,-283.0,-821.0,3
1132,-225.0,-52.0,-203.0,-1403.0,748.0,109.0,-854.0,-277.0,-744.0,3
1133,-199.0,-59.0,-170.0,-1797.0,542.0,312.0,-756.0,-269.0,-585.0,3
1134,-187.0,-66.0,-113.0,-2019.0,423.0,477.0,-725.0,-243.0,-384.0,3
1135,-177.0,-81.0,-51.0,-1915.0,351.0,609.0,-685.0,-273.0,-150.0,3
1136,-160.0,-95.0,13.0,-1554.0,301.0,705.0,-631.0,-287.0,98.0,3
1137,-138.0,-109.0,58.0,-981.0,242.0,777.0,-532.0,-324.0,277.0,3
1138,-96.0,-113.0,75.0,-317.0,141.0,814.0,-381.0,-359.0,366.0,3
1139,-53.0,-95.0,74.0,311.0,-2.0,800.0,-230.0,-327.0,360.0,3
1140,-25.0,-81.0,51.0,852.0,-155.0,749.0,-97.0,-253.0,315.0,3
1141,4.0,-48.0,39.0,1290.0,-282.0,689.0,19.0,-164.0,253.0,3
1142,38.0,-16.0,23.0,1626.0,-378.0,631.0,144.0,-69.0,180.0,3
1143,58.0,9.0,12.0,1861.0,-460.0,559.0,243.0,42.0,117.0,3
1144,76.0,33.0,-8.0,1991.0,-544.0,485.0,308.0,105.0,40.0,3
1145,93.0,52.0,-34.0,2004.0,-658.0,400.0,362.0,141.0,-58.0,3
1146,104.0,59.0,-81.0,1866.0,-757.0,329.0,402.0,161.0,-226.0,3
1147,122.0,57.0,-138.0,1630.0,-833.0,265.0,465.0,143.0,-445.0,3
1148,138.0,54.0,-175.0,1314.0,-878.0,206.0,539.0,133.0,-635.0,3
1149,162.0,62.0,-205.0,956.0,-903.0,148.0,633.0,163.0,-755.0,3
1150,190.0,81.0,-229.0,584.0,-915.0,87.0,713.0,218.0,-854.0,3
1151,204.0,101.0,-247.0,230.0,-900.0,19.0,777.0,304.0,-933.0,3
1152,207.0,118.0,-250.0,-63.0,-847.0,-56.0,802.0,372.0,-954.0,3
1153,185.0,116.0,-240.0,-243.0,-768.0,-119.0,727.0,393.0,-909.0,3
1154,141.0,102.0,-224.0,-304.0,-695.0,-144.0,569.0,365.0,-853.0,3
1155,103.0,77.0,-212.0,-313.0,-648.0,-140.0,411.0,286.0,-782.0,3
1156,87.0,52.0,-195.0,-349.0,-608.0,-159.0,323.0,171.0,-720.0,3
1157,88.0,25.0,-200.0,-462.0,-531.0,-285.0,297.0,3.0,-750.0,3
1158,92.0,-11.0,-233.0,-751.0,-332.0,-469.0,311.0,-144.0,-848.0,3
1159,117.0,-58.0,-248.0,-1122.0,-71.0,-710.0,401.0,-333.0,-917.0,3
1160,147.0,-108.0,-248.0,-1566.0,203.0,-999.0,528.0,-512.0,-916.0,3
1161,172.0,-165.0,-220.0,-1992.0,408.0,-1274.0,630.0,-699.0,-807.0,3
1162,148.0,-214.0,-172.0,-2282.0,522.0,-1502.0,561.0,-857.0,-620.0,3
1163,82.0,-266.0,-136.0,-2393.0,589.0,-1659.0,320.0,-1042.0,-477.0,3
1164,9.0,-326.0,-158.0,-2426.0,669.0,-1710.0,53.0,-1270.0,-495.0,3
1165,-53.0,-385.0,-201.0,-2572.0,779.0,-1595.0,-261.0,-1593.0,-711.0,3
1166,-149.0,-473.0,-278.0,-2950.0,898.0,-1264.0,-609.0,-1953.0,-1020.0,3
1167,-234.0,-583.0,-347.0,-3514.0,923.0,-809.0,-902.0,-2331.0,-1298.0,3
1168,-289.0,-713.0,-373.0,-4026.0,738.0,-401.0,-1093.0,-2726.0,-1413.0,3
1169,-283.0,-839.0,-335.0,-4133.0,326.0,-90.0,-1102.0,-3081.0,-1313.0,3
1170,-226.0,-951.0,-289.0,-3644.0,-293.0,249.0,-943.0,-3561.0,-1060.0,3
1171,-184.0,-948.0,-224.0,-2658.0,-638.0,564.0,-773.0,-3559.0,-830.0,3
1172,-116.0,-866.0,-187.0,-1810.0,-716.0,918.0,-539.0,-3249.0,-661.0,3
1173,-59.0,-774.0,-190.0,-936.0,-656.0,1223.0,-296.0,-2930.0,-676.0,3
1174,-21.0,-719.0,-206.0,-125.0,-581.0,1399.0,-121.0,-2690.0,-748.0,3
1175,0.0,-658.0,-202.0,541.0,-571.0,1436.0,-23.0,-2476.0,-735.0,3
1176,2.0,-604.0,-182.0,1094.0,-657.0,1369.0,3.0,-2282.0,-651.0,3
1177,-2.0,-557.0,-164.0,1587.0,-803.0,1241.0,-24.0,-2107.0,-571.0,3
1178,-15.0,-497.0,-148.0,2015.0,-942.0,1091.0,-72.0,-1916.0,-520.0,3
1179,-35.0,-436.0,-145.0,2342.0,-1038.0,946.0,-140.0,-1712.0,-488.0,3
1180,-53.0,-380.0,-142.0,2539.0,-1100.0,836.0,-213.0,-1533.0,-482.0,3
1181,-66.0,-334.0,-134.0,2590.0,-1156.0,765.0,-266.0,-1365.0,-476.0,3
1182,-71.0,-307.0,-143.0,2499.0,-1247.0,721.0,-275.0,-1236.0,-482.0,3
1183,-56.0,-281.0,-136.0,2259.0,-1336.0,701.0,-232.0,-1119.0,-442.0,3
1184,-12.0,-263.0,-107.0,2056.0,-1403.0,689.0,-36.0,-1061.0,-336.0,3
1185,39.0,-268.0,-82.0,1897.0,-1404.0,641.0,126.0,-1065.0,-243.0,3
1186,64.0,-262.0,-60.0,1766.0,-1327.0,536.0,207.0,-1042.0,-163.0,3
1187,71.0,-256.0,-56.0,1674.0,-1188.0,420.0,243.0,-1014.0,-139.0,3
1188,77.0,-249.0,-56.0,1649.0,-1029.0,329.0,270.0,-963.0,-143.0,3
1189,83.0,-235.0,-80.0,1712.0,-887.0,257.0,295.0,-919.0,-219.0,3
1190,87.0,-199.0,-141.0,1811.0,-786.0,192.0,306.0,-823.0,-434.0,3
1191,89.0,-158.0,-186.0,1805.0,-703.0,120.0,317.0,-680.0,-672.0,3
1192,89.0,-99.0,-233.0,1601.0,-620.0,40.0,324.0,-485.0,-865.0,3
1193,92.0,-43.0,-256.0,1206.0,-538.0,-60.0,339.0,-302.0,-968.0,3
1194,106.0,-2.0,-251.0,695.0,-468.0,-200.0,383.0,-140.0,-960.0,3
1195,118.0,17.0,-217.0,163.0,-405.0,-348.0,446.0,-42.0,-842.0,3
1196,128.0,15.0,-157.0,-353.0,-355.0,-504.0,477.0,3.0,-621.0,3
1197,128.0,-1.0,-88.0,-578.0,-295.0,-653.0,488.0,-10.0,-283.0,3
1198,117.0,-28.0,-34.0,-566.0,-225.0,-770.0,438.0,-81.0,-59.0,3
1199,101.0,-45.0,-3.0,-354.0,-144.0,-859.0,369.0,-162.0,78.0,3
1200,81.0,-59.0,12.0,-21.0,-49.0,-917.0,292.0,-195.0,125.0,3
1201,53.0,-63.0,9.0,365.0,51.0,-951.0,190.0,-207.0,117.0,3
1202,16.0,-57.0,9.0,747.0,151.0,-961.0,58.0,-178.0,106.0,3
1203,-30.0,-34.0,-5.0,1111.0,231.0,-954.0,-104.0,-123.0,69.0,3
1204,-71.0,-7.0,-20.0,1409.0,267.0,-927.0,-253.0,-41.0,7.0,3
1205,-97.0,19.0,-33.0,1602.0,250.0,-889.0,-361.0,64.0,-40.0,3
1206,-111.0,49.0,-43.0,1688.0,207.0,-832.0,-417.0,146.0,-75.0,3
1207,-99.0,61.0,-60.0,1673.0,162.0,-743.0,-408.0,185.0,-142.0,3
1208,-90.0,64.0,-95.0,1504.0,157.0,-671.0,-356.0,193.0,-293.0,3
1209,-81.0,65.0,-152.0,1240.0,178.0,-614.0,-324.0,180.0,-507.0,3
1210,-82.0,62.0,-206.0,883.0,216.0,-562.0,-333.0,165.0,-770.0,3
1211,-85.0,66.0,-240.0,473.0,257.0,-506.0,-344.0,174.0,-895.0,3
1212,-77.0,76.0,-265.0,58.0,304.0,-424.0,-307.0,204.0,-1009.0,3
1213,-58.0,82.0,-305.0,-320.0,390.0,-338.0,-262.0,245.0,-1139.0,3
1214,-42.0,83.0,-336.0,-613.0,588.0,-287.0,-215.0,268.0,-1276.0,3
1215,-25.0,72.0,-346.0,-775.0,896.0,-300.0,-144.0,260.0,-1318.0,3
1216,-14.0,59.0,-332.0,-803.0,1175.0,-333.0,-62.0,178.0,-1285.0,3
1217,-17.0,33.0,-306.0,-791.0,1265.0,-338.0,-47.0,67.0,-1153.0,3
1218,-43.0,-5.0,-257.0,-865.0,1154.0,-285.0,-120.0,-114.0,-989.0,3
1219,-112.0,-52.0,-232.0,-1129.0,889.0,-130.0,-355.0,-317.0,-874.0,3
1220,-207.0,-106.0,-222.0,-1712.0,445.0,103.0,-713.0,-514.0,-829.0,3
1221,-293.0,-150.0,-217.0,-2294.0,4.0,409.0,-1035.0,-657.0,-809.0,3
1222,-303.0,-192.0,-215.0,-2782.0,-529.0,731.0,-1120.0,-765.0,-792.0,3
1223,-233.0,-243.0,-205.0,-3063.0,-1180.0,919.0,-898.0,-869.0,-753.0,3
1224,-119.0,-276.0,-228.0,-3109.0,-1878.0,842.0,-533.0,-1078.0,-822.0,3
1225,-28.0,-317.0,-272.0,-3090.0,-2446.0,544.0,-49.0,-1321.0,-1039.0,3
1226,95.0,-388.0,-333.0,-3246.0,-2695.0,235.0,350.0,-1628.0,-1274.0,3
1227,207.0,-483.0,-392.0,-3687.0,-2563.0,-9.0,669.0,-2051.0,-1465.0,3
1228,251.0,-583.0,-396.0,-4371.0,-2034.0,-206.0,787.0,-2392.0,-1478.0,3
1229,223.0,-676.0,-321.0,-5004.0,-1172.0,-330.0,671.0,-2607.0,-1202.0,3
1230,148.0,-752.0,-215.0,-5117.0,-210.0,-361.0,468.0,-2766.0,-788.0,3
1231,81.0,-820.0,-151.0,-4468.0,519.0,-378.0,265.0,-2927.0,-521.0,3
1232,59.0,-878.0,-148.0,-3210.0,842.0,-414.0,208.0,-3146.0,-487.0,3
1233,78.0,-916.0,-165.0,-1457.0,736.0,-493.0,286.0,-3367.0,-577.0,3
1234,121.0,-914.0,-181.0,-183.0,531.0,-632.0,408.0,-3401.0,-646.0,3
1235,153.0,-856.0,-197.0,836.0,475.0,-819.0,486.0,-3247.0,-699.0,3
1236,158.0,-759.0,-207.0,1631.0,649.0,-999.0,510.0,-2928.0,-721.0,3
1237,143.0,-657.0,-203.0,2230.0,917.0,-1111.0,494.0,-2574.0,-727.0,3
1238,141.0,-563.0,-184.0,2628.0,1112.0,-1131.0,500.0,-2175.0,-668.0,3
1239,148.0,-475.0,-172.0,2818.0,1182.0,-1076.0,549.0,-1897.0,-597.0,3
1240,172.0,-404.0,-154.0,2812.0,1189.0,-962.0,619.0,-1641.0,-529.0,3
1241,197.0,-343.0,-136.0,2663.0,1220.0,-848.0,707.0,-1423.0,-478.0,3
1242,206.0,-310.0,-144.0,2463.0,1293.0,-774.0,771.0,-1231.0,-505.0,3
1243,208.0,-266.0,-163.0,2270.0,1381.0,-730.0,768.0,-1080.0,-587.0,3
1244,177.0,-236.0,-182.0,2156.0,1451.0,-664.0,652.0,-930.0,-663.0,3
1245,103.0,-220.0,-198.0,2235.0,1515.0,-600.0,382.0,-858.0,-705.0,3
1246,14.0,-213.0,-203.0,2434.0,1586.0,-502.0,54.0,-858.0,-707.0,3
1247,-44.0,-199.0,-185.0,2610.0,1667.0,-372.0,-181.0,-799.0,-676.0,3
1248,-86.0,-136.0,-191.0,2733.0,1717.0,-271.0,-320.0,-599.0,-684.0,3
1249,-125.0,-56.0,-207.0,2799.0,1704.0,-230.0,-430.0,-334.0,-728.0,3
1250,-146.0,-2.0,-219.0,2752.0,1601.0,-194.0,-544.0,-81.0,-801.0,3
1251,-176.0,69.0,-241.0,2510.0,1368.0,-137.0,-629.0,136.0,-899.0,3
1252,-193.0,130.0,-258.0,1991.0,1025.0,-35.0,-697.0,368.0,-989.0,3
1253,-200.0,183.0,-259.0,1198.0,639.0,83.0,-721.0,530.0,-997.0,3
1254,-193.0,211.0,-233.0,228.0,280.0,227.0,-702.0,618.0,-892.0,3
1255,-180.0,199.0,-172.0,-748.0,-7.0,396.0,-678.0,633.0,-647.0,3
1256,-160.0,144.0,-90.0,-1518.0,-184.0,650.0,-623.0,508.0,-319.0,3
1257,-135.0,56.0,-12.0,-1975.0,-245.0,876.0,-537.0,256.0,-5.0,3
1258,-94.0,-47.0,36.0,-1971.0,-230.0,1060.0,-385.0,-84.0,196.0,3
1259,-73.0,-99.0,59.0,-1738.0,-234.0,1139.0,-274.0,-335.0,294.0,3
1260,-56.0,-131.0,65.0,-1348.0,-254.0,1143.0,-212.0,-440.0,336.0,3
1261,-44.0,-126.0,63.0,-838.0,-280.0,1133.0,-170.0,-416.0,327.0,3
1262,-30.0,-99.0,48.0,-268.0,-294.0,1148.0,-128.0,-326.0,279.0,3
1263,-19.0,-66.0,31.0,265.0,-293.0,1141.0,-86.0,-236.0,217.0,3
1264,-13.0,-27.0,13.0,676.0,-286.0,1122.0,-61.0,-122.0,156.0,3
1265,-5.0,1.0,2.0,928.0,-285.0,1099.0,-11.0,-4.0,98.0,3
1266,9.0,28.0,-5.0,1030.0,-305.0,1081.0,54.0,68.0,65.0,3
1267,23.0,39.0,-11.0,1015.0,-345.0,1045.0,106.0,114.0,19.0,3
1268,37.0,40.0,-30.0,926.0,-389.0,993.0,174.0,141.0,-5.0,3
1269,59.0,46.0,-28.0,803.0,-445.0,895.0,242.0,147.0,-25.0,3
1270,75.0,49.0,-44.0,667.0,-482.0,792.0,297.0,156.0,-97.0,3
1271,86.0,54.0,-86.0,566.0,-492.0,673.0,328.0,164.0,-256.0,3
1272,100.0,56.0,-147.0,451.0,-462.0,568.0,361.0,168.0,-485.0,3
1273,115.0,60.0,-195.0,300.0,-405.0,468.0,432.0,170.0,-684.0,3
1274,147.0,68.0,-244.0,112.0,-339.0,379.0,528.0,196.0,-872.0,3
1275,182.0,89.0,-290.0,-95.0,-230.0,288.0,636.0,256.0,-1054.0,3
1276,218.0,97.0,-320.0,-294.0,8.0,192.0,780.0,301.0,-1216.0,3
1277,233.0,96.0,-321.0,-458.0,368.0,75.0,870.0,301.0,-1237.0,3
1278,170.0,85.0,-318.0,-582.0,618.0,-31.0,698.0,263.0,-1234.0,3
1279,131.0,45.0,-311.0,-721.0,644.0,-135.0,521.0,76.0,-1207.0,3
1280,161.0,-28.0,-306.0,-945.0,499.0,-350.0,669.0,-208.0,-1154.0,3
1281,235.0,-140.0,-293.0,-1331.0,191.0,-891.0,954.0,-666.0,-1103.0,3
1282,304.0,-261.0,-288.0,-2069.0,-176.0,-1565.0,1134.0,-1123.0,-1085.0,3
1283,270.0,-299.0,-270.0,-2819.0,-180.0,-2296.0,969.0,-1259.0,-1016.0,3
1284,194.0,-288.0,-231.0,-3398.0,203.0,-2713.0,592.0,-1170.0,-821.0,3
1285,120.0,-314.0,-192.0,-3579.0,775.0,-2727.0,364.0,-1223.0,-663.0,3
1286,70.0,-396.0,-177.0,-3409.0,1280.0,-2504.0,228.0,-1527.0,-612.0,3
1287,-11.0,-508.0,-205.0,-3155.0,1475.0,-2294.0,-7.0,-1964.0,-721.0,3
1288,-141.0,-669.0,-365.0,-3136.0,1282.0,-2079.0,-461.0,-2654.0,-1281.0,3
1289,-292.0,-863.0,-474.0,-3681.0,775.0,-1634.0,-1029.0,-3404.0,-1824.0,3
1290,-318.0,-1056.0,-476.0,-4424.0,144.0,-858.0,-1221.0,-3989.0,-1876.0,3
1291,-239.0,-1160.0,-337.0,-4572.0,-448.0,6.0,-1072.0,-4279.0,-1427.0,3
1292,-186.0,-1121.0,-217.0,-3641.0,-818.0,744.0,-854.0,-4072.0,-812.0,3
1293,-165.0,-1030.0,-163.0,-1952.0,-827.0,1524.0,-731.0,-3706.0,-532.0,3
1294,-131.0,-902.0,-155.0,-296.0,-550.0,2105.0,-564.0,-3300.0,-515.0,3
1295,-115.0,-782.0,-169.0,1096.0,-478.0,2452.0,-483.0,-2904.0,-592.0,3
1296,-110.0,-679.0,-176.0,1895.0,-546.0,2527.0,-473.0,-2544.0,-626.0,3
1297,-87.0,-574.0,-160.0,2485.0,-626.0,2381.0,-383.0,-2179.0,-560.0,3
1298,-63.0,-476.0,-134.0,2929.0,-688.0,2104.0,-276.0,-1828.0,-470.0,3
1299,-37.0,-376.0,-118.0,3258.0,-758.0,1767.0,-166.0,-1487.0,-401.0,3
1300,-19.0,-279.0,-122.0,3424.0,-864.0,1487.0,-81.0,-1168.0,-391.0,3
1301,-17.0,-215.0,-141.0,3367.0,-1008.0,1322.0,-64.0,-901.0,-477.0,3
1302,-15.0,-154.0,-161.0,3078.0,-1130.0,1280.0,-57.0,-700.0,-554.0,3
1303,-7.0,-124.0,-160.0,2630.0,-1203.0,1299.0,-25.0,-595.0,-557.0,3
1304,19.0,-120.0,-139.0,2126.0,-1237.0,1323.0,49.0,-545.0,-494.0,3
1305,71.0,-135.0,-106.0,1688.0,-1228.0,1287.0,218.0,-548.0,-349.0,3
1306,131.0,-192.0,-75.0,1411.0,-1148.0,1109.0,483.0,-771.0,-214.0,3
1307,155.0,-238.0,-38.0,1278.0,-1032.0,814.0,556.0,-911.0,-77.0,3
1308,152.0,-263.0,-15.0,1341.0,-905.0,520.0,553.0,-993.0,18.0,3
1309,139.0,-262.0,-28.0,1539.0,-766.0,322.0,491.0,-1034.0,-5.0,3
1310,121.0,-242.0,-76.0,1759.0,-553.0,264.0,451.0,-942.0,-230.0,3
1311,117.0,-179.0,-137.0,1793.0,-320.0,245.0,423.0,-756.0,-458.0,3
1312,103.0,-97.0,-186.0,1559.0,-159.0,191.0,378.0,-498.0,-674.0,3
1313,92.0,-19.0,-223.0,1090.0,-72.0,101.0,340.0,-221.0,-788.0,3
1314,92.0,33.0,-227.0,483.0,-26.0,14.0,348.0,-19.0,-840.0,3
1315,113.0,59.0,-206.0,-172.0,3.0,-84.0,409.0,92.0,-781.0,3
1316,138.0,48.0,-156.0,-791.0,25.0,-203.0,511.0,98.0,-606.0,3
1317,152.0,15.0,-91.0,-1286.0,55.0,-363.0,569.0,33.0,-382.0,3
1318,154.0,-28.0,-46.0,-1577.0,106.0,-562.0,571.0,-78.0,-155.0,3
1319,144.0,-58.0,-13.0,-1599.0,193.0,-685.0,547.0,-214.0,51.0,3
1320,131.0,-87.0,12.0,-1346.0,276.0,-746.0,465.0,-310.0,121.0,3
1321,109.0,-113.0,11.0,-885.0,371.0,-764.0,384.0,-368.0,127.0,3
1322,76.0,-121.0,4.0,-289.0,468.0,-763.0,282.0,-389.0,101.0,3
1323,34.0,-116.0,-6.0,364.0,537.0,-775.0,138.0,-383.0,63.0,3
1324,-9.0,-85.0,-15.0,994.0,559.0,-797.0,-9.0,-294.0,28.0,3
1325,-41.0,-43.0,-30.0,1555.0,530.0,-820.0,-139.0,-146.0,-19.0,3
1326,-70.0,2.0,-55.0,2007.0,457.0,-804.0,-242.0,0.0,-117.0,3
1327,-86.0,31.0,-82.0,2302.0,367.0,-743.0,-327.0,107.0,-238.0,3
1328,-99.0,59.0,-126.0,2406.0,278.0,-645.0,-367.0,177.0,-421.0,3
1329,-101.0,79.0,-185.0,2305.0,198.0,-551.0,-375.0,224.0,-647.0,3
1330,-97.0,100.0,-244.0,2016.0,138.0,-469.0,-374.0,273.0,-893.0,3
1331,-91.0,115.0,-303.0,1584.0,109.0,-386.0,-365.0,316.0,-1109.0,3
1332,-79.0,133.0,-349.0,972.0,147.0,-307.0,-338.0,382.0,-1328.0,3
1333,-60.0,146.0,-380.0,446.0,269.0,-236.0,-262.0,439.0,-1452.0,3
1334,-40.0,140.0,-378.0,-49.0,477.0,-180.0,-209.0,453.0,-1450.0,3
1335,-25.0,123.0,-337.0,-455.0,707.0,-166.0,-126.0,409.0,-1316.0,3
1336,-18.0,100.0,-302.0,-726.0,879.0,-185.0,-79.0,312.0,-1131.0,3
1337,-35.0,59.0,-266.0,-870.0,940.0,-222.0,-109.0,160.0,-1005.0,3
1338,-83.0,16.0,-244.0,-1004.0,855.0,-218.0,-275.0,-13.0,-914.0,3
1339,-181.0,-30.0,-232.0,-1250.0,608.0,-132.0,-629.0,-207.0,-882.0,3
1340,-290.0,-90.0,-204.0,-1646.0,262.0,68.0,-1060.0,-430.0,-775.0,3
1341,-365.0,-178.0,-174.0,-2084.0,-77.0,400.0,-1362.0,-697.0,-644.0,3
1342,-340.0,-244.0,-163.0,-2393.0,-426.0,858.0,-1266.0,-936.0,-573.0,3
1343,-221.0,-286.0,-199.0,-2513.0,-1011.0,1182.0,-844.0,-1116.0,-722.0,3
1344,-112.0,-300.0,-217.0,-2539.0,-2076.0,1021.0,-361.0,-1163.0,-800.0,3
1345,49.0,-357.0,-304.0,-2585.0,-2814.0,645.0,145.0,-1454.0,-1097.0,3
1346,169.0,-421.0,-402.0,-2954.0,-3060.0,317.0,522.0,-1813.0,-1529.0,3
1347,239.0,-479.0,-435.0,-3607.0,-2740.0,127.0,748.0,-2013.0,-1638.0,3
1348,243.0,-530.0,-428.0,-4281.0,-1923.0,48.0,723.0,-2146.0,-1595.0,3
1349,237.0,-569.0,-315.0,-4725.0,-793.0,-13.0,735.0,-2168.0,-1186.0,3
1350,186.0,-609.0,-224.0,-4632.0,258.0,-126.0,624.0,-2263.0,-831.0,3
1351,141.0,-655.0,-155.0,-4047.0,899.0,-238.0,531.0,-2370.0,-562.0,3
1352,118.0,-706.0,-145.0,-3116.0,1025.0,-329.0,457.0,-2542.0,-520.0,3
1353,121.0,-731.0,-173.0,-2023.0,817.0,-476.0,447.0,-2700.0,-616.0,3
1354,152.0,-749.0,-214.0,-908.0,599.0,-684.0,542.0,-2782.0,-780.0,3
1355,186.0,-747.0,-253.0,104.0,513.0,-922.0,662.0,-2815.0,-924.0,3
1356,192.0,-716.0,-271.0,886.0,553.0,-1163.0,667.0,-2752.0,-1006.0,3
1357,174.0,-651.0,-263.0,1479.0,687.0,-1258.0,604.0,-2561.0,-979.0,3
1358,155.0,-579.0,-234.0,1745.0,875.0,-1272.0,548.0,-2315.0,-873.0,3
1359,151.0,-510.0,-197.0,1840.0,1053.0,-1238.0,534.0,-2074.0,-739.0,3
1360,159.0,-454.0,-162.0,1781.0,1167.0,-1131.0,555.0,-1809.0,-557.0,3
1361,179.0,-427.0,-122.0,1634.0,1257.0,-959.0,665.0,-1685.0,-388.0,3
1362,224.0,-409.0,-93.0,1489.0,1392.0,-770.0,835.0,-1610.0,-272.0,3
1363,263.0,-395.0,-89.0,1390.0,1578.0,-636.0,972.0,-1564.0,-253.0,3
1364,267.0,-387.0,-98.0,1362.0,1761.0,-541.0,1005.0,-1511.0,-294.0,3
1365,223.0,-385.0,-116.0,1460.0,1880.0,-464.0,839.0,-1491.0,-375.0,3
1366,151.0,-390.0,-148.0,1645.0,1924.0,-340.0,577.0,-1522.0,-496.0,3
1367,101.0,-386.0,-154.0,1843.0,1941.0,-142.0,369.0,-1494.0,-542.0,3
1368,53.0,-361.0,-145.0,2070.0,1992.0,53.0,198.0,-1384.0,-491.0,3
1369,6.0,-299.0,-133.0,2481.0,2116.0,116.0,31.0,-1168.0,-434.0,3
1370,-23.0,-227.0,-154.0,2922.0,2234.0,134.0,-105.0,-858.0,-520.0,3
1371,-61.0,-112.0,-203.0,3283.0,2288.0,89.0,-240.0,-472.0,-710.0,3
1372,-115.0,13.0,-254.0,3386.0,2222.0,-9.0,-398.0,-75.0,-927.0,3
1373,-157.0,116.0,-308.0,3130.0,2033.0,-112.0,-536.0,255.0,-1180.0,3
1374,-186.0,201.0,-323.0,2493.0,1745.0,-153.0,-672.0,582.0,-1252.0,3
1375,-202.0,249.0,-299.0,1593.0,1425.0,-107.0,-726.0,772.0,-1146.0,3
1376,-201.0,262.0,-248.0,598.0,1126.0,23.0,-729.0,841.0,-963.0,3
1377,-193.0,252.0,-178.0,-368.0,862.0,204.0,-715.0,846.0,-692.0,3
1378,-182.0,227.0,-103.0,-1165.0,643.0,406.0,-659.0,776.0,-319.0,3
1379,-159.0,158.0,7.0,-1657.0,484.0,611.0,-591.0,580.0,104.0,3
1380,-143.0,66.0,97.0,-1771.0,393.0,810.0,-544.0,293.0,456.0,3
1381,-124.0,-31.0,143.0,-1557.0,326.0,1012.0,-469.0,-40.0,649.0,3
1382,-110.0,-95.0,153.0,-1078.0,257.0,1119.0,-418.0,-291.0,698.0,3
1383,-93.0,-121.0,137.0,-627.0,192.0,1156.0,-368.0,-395.0,628.0,3
1384,-79.0,-105.0,98.0,-161.0,160.0,1151.0,-304.0,-366.0,500.0,3
1385,-58.0,-71.0,43.0,279.0,164.0,1133.0,-236.0,-274.0,296.0,3
1386,-24.0,-41.0,-18.0,599.0,179.0,1134.0,-136.0,-194.0,79.0,3
1387,-5.0,-25.0,-56.0,745.0,186.0,1135.0,-21.0,-113.0,-164.0,3
1388,23.0,-4.0,-86.0,732.0,166.0,1116.0,106.0,-77.0,-283.0,3
1389,44.0,-1.0,-98.0,615.0,109.0,1075.0,195.0,-53.0,-336.0,3
1390,61.0,4.0,-101.0,460.0,-1.0,1025.0,269.0,-20.0,-328.0,3
1391,78.0,9.0,-95.0,338.0,-153.0,975.0,325.0,9.0,-310.0,3
1392,93.0,14.0,-111.0,282.0,-314.0,929.0,363.0,24.0,-363.0,3
1393,106.0,13.0,-177.0,284.0,-435.0,866.0,385.0,23.0,-587.0,3
1394,125.0,18.0,-282.0,304.0,-478.0,806.0,448.0,14.0,-982.0,3
1395,163.0,20.0,-338.0,271.0,-449.0,726.0,637.0,11.0,-1292.0,3
1396,236.0,35.0,-388.0,126.0,-395.0,643.0,922.0,53.0,-1474.0,3
1397,339.0,44.0,-404.0,-107.0,-294.0,548.0,1267.0,69.0,-1571.0,3
1398,377.0,18.0,-353.0,-324.0,-103.0,411.0,1436.0,15.0,-1401.0,3
1399,315.0,-31.0,-294.0,-427.0,133.0,203.0,1258.0,-129.0,-1161.0,3
1400,273.0,-93.0,-259.0,-431.0,236.0,-59.0,1078.0,-345.0,-987.0,3
1401,313.0,-195.0,-278.0,-527.0,127.0,-452.0,1212.0,-865.0,-1063.0,3
1402,367.0,-279.0,-351.0,-934.0,-24.0,-1106.0,1345.0,-1214.0,-1309.0,3
1403,351.0,-277.0,-404.0,-1619.0,97.0,-1876.0,1253.0,-1202.0,-1518.0,3
1404,281.0,-276.0,-383.0,-2265.0,615.0,-2378.0,908.0,-1141.0,-1455.0,3
1405,153.0,-293.0,-324.0,-2568.0,1237.0,-2449.0,509.0,-1157.0,-1228.0,3
1406,47.0,-334.0,-282.0,-2494.0,1602.0,-2351.0,155.0,-1253.0,-1058.0,3
1407,-51.0,-395.0,-242.0,-2117.0,1596.0,-2333.0,-191.0,-1476.0,-904.0,3
1408,-137.0,-464.0,-207.0,-1733.0,1415.0,-2372.0,-488.0,-1747.0,-780.0,3
1409,-234.0,-521.0,-230.0,-1404.0,1114.0,-2293.0,-846.0,-1975.0,-820.0,3
1410,-295.0,-597.0,-267.0,-1159.0,805.0,-1902.0,-1140.0,-2272.0,-967.0,3
1411,-317.0,-637.0,-272.0,-946.0,547.0,-1219.0,-1234.0,-2408.0,-1028.0,3
1412,-295.0,-658.0,-264.0,-620.0,259.0,-455.0,-1144.0,-2504.0,-1001.0,3
1413,-247.0,-682.0,-278.0,-249.0,-66.0,279.0,-999.0,-2658.0,-1036.0,3
1414,-197.0,-675.0,-276.0,-190.0,-197.0,990.0,-874.0,-2717.0,-1005.0,3
1415,-142.0,-653.0,-230.0,-560.0,-30.0,1609.0,-601.0,-2605.0,-808.0,3
1416,-88.0,-613.0,-170.0,-1117.0,233.0,2011.0,-371.0,-2451.0,-585.0,3
1417,-50.0,-587.0,-133.0,-1630.0,350.0,2183.0,-194.0,-2342.0,-447.0,3
1418,-29.0,-592.0,-122.0,-1999.0,180.0,2220.0,-102.0,-2308.0,-412.0,3
1419,-27.0,-607.0,-102.0,-2200.0,-140.0,2163.0,-78.0,-2319.0,-351.0,3
1420,-15.0,-604.0,-57.0,-2135.0,-561.0,2029.0,-19.0,-2284.0,-182.0,3
1421,-8.0,-601.0,-31.0,-1794.0,-1080.0,1823.0,11.0,-2223.0,-28.0,3
1422,-12.0,-568.0,-26.0,-1242.0,-1597.0,1589.0,-26.0,-2091.0,-12.0,3
1423,-17.0,-517.0,-48.0,-604.0,-1949.0,1403.0,-94.0,-1930.0,-106.0,3
1424,-22.0,-466.0,-74.0,10.0,-2081.0,1280.0,-122.0,-1753.0,-194.0,3
1425,-19.0,-408.0,-100.0,530.0,-2049.0,1167.0,-125.0,-1562.0,-268.0,3
1426,3.0,-355.0,-109.0,961.0,-1914.0,1045.0,-70.0,-1375.0,-334.0,3
1427,40.0,-322.0,-89.0,1333.0,-1718.0,906.0,78.0,-1231.0,-278.0,3
1428,65.0,-287.0,-61.0,1687.0,-1522.0,756.0,219.0,-1078.0,-154.0,3
1429,73.0,-262.0,-49.0,2088.0,-1332.0,630.0,235.0,-935.0,-89.0,3
1430,68.0,-219.0,-56.0,2556.0,-1098.0,549.0,211.0,-787.0,-127.0,3
1431,61.0,-163.0,-105.0,3015.0,-736.0,514.0,194.0,-607.0,-316.0,3
1432,61.0,-89.0,-161.0,3360.0,-450.0,518.0,203.0,-391.0,-565.0,3
1433,52.0,-22.0,-212.0,3345.0,-246.0,530.0,190.0,-189.0,-773.0,3
1434,52.0,24.0,-235.0,3049.0,-113.0,528.0,199.0,-46.0,-866.0,3
1435,67.0,47.0,-244.0,2550.0,-38.0,484.0,253.0,45.0,-912.0,3
1436,89.0,65.0,-237.0,1903.0,-17.0,395.0,326.0,108.0,-896.0,3
1437,109.0,63.0,-205.0,1193.0,-46.0,276.0,409.0,114.0,-799.0,3
1438,125.0,52.0,-164.0,507.0,-111.0,139.0,493.0,100.0,-613.0,3
1439,140.0,28.0,-108.0,-64.0,-196.0,-20.0,542.0,42.0,-377.0,3
1440,145.0,-3.0,-51.0,-453.0,-275.0,-196.0,561.0,-41.0,-154.0,3
1441,143.0,-45.0,-1.0,-637.0,-316.0,-377.0,541.0,-163.0,64.0,3
1442,130.0,-82.0,24.0,-621.0,-320.0,-535.0,493.0,-306.0,166.0,3
1443,116.0,-107.0,34.0,-446.0,-294.0,-672.0,439.0,-396.0,217.0,3
1444,105.0,-127.0,31.0,-104.0,-227.0,-723.0,386.0,-447.0,211.0,3
1445,91.0,-119.0,22.0,252.0,-153.0,-737.0,340.0,-430.0,169.0,3
1446,77.0,-98.0,10.0,655.0,-70.0,-726.0,289.0,-339.0,118.0,3
1447,64.0,-70.0,-12.0,1079.0,31.0,-704.0,237.0,-241.0,34.0,3
1448,44.0,-39.0,-46.0,1466.0,143.0,-673.0,159.0,-136.0,-93.0,3
1449,17.0,-3.0,-83.0,1755.0,242.0,-641.0,67.0,-28.0,-239.0,3
1450,-8.0,33.0,-122.0,1896.0,310.0,-603.0,-27.0,71.0,-395.0,3
1451,-26.0,67.0,-155.0,1860.0,348.0,-554.0,-94.0,175.0,-527.0,3
1452,-39.0,92.0,-172.0,1654.0,368.0,-493.0,-143.0,265.0,-613.0,3
1453,-43.0,108.0,-172.0,1337.0,390.0,-431.0,-169.0,323.0,-629.0,3
1454,-41.0,115.0,-171.0,991.0,432.0,-385.0,-168.0,358.0,-615.0,3
1455,-35.0,104.0,-171.0,688.0,494.0,-348.0,-142.0,338.0,-630.0,3
1456,-25.0,89.0,-193.0,470.0,578.0,-301.0,-105.0,293.0,-711.0,3
1457,-16.0,71.0,-224.0,319.0,636.0,-252.0,-92.0,242.0,-826.0,3
1458,-18.0,66.0,-255.0,249.0,699.0,-189.0,-103.0,192.0,-961.0,3
1459,-19.0,66.0,-302.0,149.0,833.0,-148.0,-137.0,177.0,-1099.0,3
1460,-36.0,63.0,-309.0,-48.0,1061.0,-147.0,-162.0,172.0,-1163.0,3
1461,-41.0,47.0,-309.0,-287.0,1252.0,-199.0,-145.0,128.0,-1186.0,3
1462,-45.0,14.0,-318.0,-498.0,1254.0,-284.0,-119.0,24.0,-1228.0,3
1463,-69.0,-6.0,-319.0,-699.0,1007.0,-367.0,-203.0,-118.0,-1236.0,3
1464,-172.0,-35.0,-315.0,-996.0,562.0,-382.0,-601.0,-252.0,-1222.0,3
1465,-314.0,-90.0,-307.0,-1512.0,65.0,-207.0,-1161.0,-505.0,-1163.0,3
1466,-400.0,-166.0,-298.0,-2293.0,-357.0,203.0,-1495.0,-791.0,-1123.0,3
1467,-380.0,-238.0,-299.0,-3186.0,-746.0,748.0,-1456.0,-1032.0,-1131.0,3
1468,-260.0,-299.0,-295.0,-3992.0,-1347.0,1177.0,-1016.0,-1209.0,-1109.0,3
1469,-146.0,-347.0,-350.0,-4672.0,-1941.0,1046.0,-544.0,-1425.0,-1321.0,3
1470,0.0,-432.0,-420.0,-5163.0,-2329.0,641.0,-95.0,-1740.0,-1593.0,3
1471,136.0,-553.0,-445.0,-5666.0,-2329.0,245.0,358.0,-2177.0,-1670.0,3
1472,185.0,-646.0,-425.0,-6035.0,-1966.0,-5.0,574.0,-2551.0,-1573.0,3
1473,175.0,-781.0,-377.0,-5909.0,-1384.0,-115.0,481.0,-2928.0,-1383.0,3
1474,144.0,-904.0,-283.0,-5032.0,-649.0,-164.0,390.0,-3247.0,-1020.0,3
1475,125.0,-1002.0,-183.0,-3440.0,53.0,-287.0,362.0,-3565.0,-649.0,3
1476,90.0,-1049.0,-160.0,-1562.0,496.0,-535.0,299.0,-3857.0,-529.0,3
1477,65.0,-1020.0,-188.0,-10.0,632.0,-852.0,226.0,-3873.0,-631.0,3
1478,67.0,-914.0,-211.0,952.0,609.0,-1178.0,196.0,-3556.0,-735.0,3
1479,90.0,-787.0,-211.0,1548.0,602.0,-1433.0,253.0,-3116.0,-757.0,3
1480,126.0,-673.0,-204.0,1966.0,656.0,-1620.0,372.0,-2626.0,-706.0,3
1481,136.0,-550.0,-171.0,2327.0,756.0,-1696.0,478.0,-2155.0,-592.0,3
1482,149.0,-434.0,-130.0,2551.0,846.0,-1711.0,529.0,-1628.0,-414.0,3
1483,157.0,-337.0,-105.0,2727.0,927.0,-1656.0,574.0,-1314.0,-322.0,3
1484,174.0,-275.0,-104.0,2809.0,996.0,-1515.0,656.0,-1120.0,-321.0,3
1485,218.0,-253.0,-119.0,2737.0,1059.0,-1324.0,817.0,-1064.0,-390.0,3
1486,261.0,-243.0,-144.0,2498.0,1129.0,-1187.0,992.0,-1038.0,-499.0,3
1487,278.0,-221.0,-176.0,2148.0,1178.0,-1132.0,1067.0,-947.0,-627.0,3
1488,249.0,-188.0,-183.0,1875.0,1188.0,-1124.0,973.0,-751.0,-647.0,3
1489,184.0,-174.0,-184.0,1893.0,1218.0,-1145.0,644.0,-684.0,-652.0,3
1490,87.0,-178.0,-153.0,2099.0,1340.0,-1071.0,277.0,-679.0,-521.0,3
1491,21.0,-165.0,-114.0,2383.0,1549.0,-871.0,53.0,-625.0,-367.0,3
1492,-28.0,-123.0,-104.0,2701.0,1749.0,-719.0,-117.0,-480.0,-315.0,3
1493,-72.0,-55.0,-129.0,2969.0,1873.0,-681.0,-236.0,-287.0,-411.0,3
1494,-120.0,20.0,-161.0,2976.0,1788.0,-692.0,-367.0,-62.0,-540.0,3
1495,-154.0,84.0,-182.0,2628.0,1488.0,-659.0,-525.0,155.0,-667.0,3
1496,-169.0,137.0,-214.0,1966.0,1083.0,-549.0,-593.0,339.0,-798.0,3
1497,-163.0,169.0,-229.0,1004.0,664.0,-381.0,-583.0,446.0,-851.0,3
1498,-155.0,178.0,-205.0,-124.0,311.0,-174.0,-574.0,490.0,-756.0,3
1499,-142.0,144.0,-147.0,-1181.0,108.0,85.0,-537.0,403.0,-496.0,3
1500,-112.0,56.0,-62.0,-1943.0,68.0,378.0,-441.0,155.0,-172.0,3
1501,-83.0,-53.0,16.0,-2301.0,129.0,664.0,-337.0,-181.0,130.0,3
1502,-65.0,-141.0,65.0,-2242.0,234.0,875.0,-283.0,-457.0,318.0,3
1503,-64.0,-184.0,84.0,-1853.0,342.0,1016.0,-256.0,-608.0,413.0,3
1504,-63.0,-181.0,86.0,-1256.0,431.0,1113.0,-251.0,-615.0,425.0,3
1505,-63.0,-145.0,56.0,-553.0,493.0,1170.0,-238.0,-504.0,339.0,3
1506,-56.0,-111.0,28.0,130.0,549.0,1201.0,-231.0,-384.0,197.0,3
1507,-42.0,-72.0,-5.0,768.0,572.0,1219.0,-176.0,-256.0,63.0,3
1508,-19.0,-29.0,-42.0,1105.0,542.0,1226.0,-65.0,-134.0,-64.0,3
1509,11.0,10.0,-67.0,1273.0,420.0,1227.0,57.0,13.0,-211.0,3
1510,47.0,34.0,-96.0,1302.0,230.0,1219.0,218.0,92.0,-326.0,3
1511,76.0,53.0,-118.0,1216.0,31.0,1197.0,313.0,146.0,-409.0,3
1512,101.0,67.0,-126.0,1049.0,-122.0,1146.0,388.0,210.0,-438.0,3
1513,115.0,78.0,-122.0,866.0,-225.0,1075.0,448.0,255.0,-435.0,3
1514,114.0,82.0,-114.0,709.0,-299.0,987.0,456.0,279.0,-363.0,3
1515,111.0,70.0,-90.0,607.0,-357.0,885.0,431.0,246.0,-277.0,3
1516,104.0,60.0,-78.0,553.0,-391.0,750.0,404.0,198.0,-233.0,3
1517,95.0,57.0,-101.0,494.0,-399.0,595.0,369.0,174.0,-319.0,3
1518,94.0,63.0,-171.0,378.0,-368.0,409.0,359.0,174.0,-567.0,3
1519,118.0,75.0,-235.0,132.0,-318.0,286.0,443.0,209.0,-846.0,3
1520,181.0,97.0,-264.0,-142.0,-333.0,190.0,655.0,271.0,-993.0,3
1521,277.0,112.0,-310.0,-428.0,-379.0,113.0,989.0,337.0,-1142.0,3
1522,361.0,99.0,-312.0,-663.0,-354.0,23.0,1334.0,343.0,-1220.0,3
1523,364.0,75.0,-297.0,-829.0,-309.0,-134.0,1441.0,184.0,-1126.0,3
1524,323.0,13.0,-281.0,-1051.0,-449.0,-434.0,1283.0,-75.0,-1083.0,3
1525,276.0,-65.0,-299.0,-1462.0,-718.0,-977.0,1043.0,-395.0,-1142.0,3
1526,205.0,-164.0,-371.0,-2072.0,-841.0,-1724.0,709.0,-808.0,-1418.0,3
1527,113.0,-260.0,-427.0,-2885.0,-609.0,-2461.0,310.0,-1169.0,-1623.0,3
1528,8.0,-347.0,-401.0,-3798.0,-53.0,-3009.0,-83.0,-1460.0,-1539.0,3
1529,-72.0,-446.0,-260.0,-4605.0,539.0,-3322.0,-311.0,-1703.0,-1053.0,3
1530,-105.0,-563.0,-127.0,-4942.0,855.0,-3447.0,-420.0,-2026.0,-491.0,3
1531,-161.0,-702.0,-181.0,-4649.0,857.0,-3456.0,-613.0,-2502.0,-513.0,3
1532,-241.0,-816.0,-315.0,-3988.0,691.0,-3273.0,-949.0,-3129.0,-1155.0,3
1533,-411.0,-1003.0,-437.0,-3571.0,411.0,-2647.0,-1581.0,-3819.0,-1660.0,3
1534,-484.0,-1138.0,-398.0,-2949.0,59.0,-1277.0,-1897.0,-4209.0,-1579.0,3
1535,-333.0,-1116.0,-306.0,-1592.0,-415.0,564.0,-1412.0,-4088.0,-1209.0,3
1536,-192.0,-1007.0,-212.0,204.0,-762.0,2043.0,-917.0,-3807.0,-765.0,3
1537,-80.0,-877.0,-169.0,1547.0,-815.0,2834.0,-384.0,-3338.0,-583.0,3
1538,-8.0,-763.0,-177.0,2165.0,-751.0,3005.0,-86.0,-2980.0,-610.0,3
1539,29.0,-659.0,-184.0,2260.0,-741.0,2783.0,82.0,-2630.0,-655.0,3
1540,51.0,-585.0,-186.0,2051.0,-844.0,2394.0,211.0,-2263.0,-660.0,3
1541,58.0,-495.0,-187.0,1774.0,-1078.0,1971.0,247.0,-1952.0,-685.0,3
1542,48.0,-427.0,-200.0,1478.0,-1369.0,1599.0,177.0,-1703.0,-728.0,3
1543,22.0,-357.0,-192.0,1152.0,-1579.0,1332.0,63.0,-1455.0,-700.0,3
1544,7.0,-285.0,-149.0,841.0,-1657.0,1121.0,-16.0,-1172.0,-528.0,3
1545,-10.0,-246.0,-98.0,705.0,-1657.0,1022.0,-51.0,-939.0,-351.0,3
1546,11.0,-225.0,-83.0,859.0,-1651.0,960.0,6.0,-846.0,-256.0,3
1547,43.0,-234.0,-103.0,1184.0,-1627.0,875.0,106.0,-849.0,-299.0,3
1548,98.0,-261.0,-109.0,1574.0,-1486.0,707.0,260.0,-942.0,-357.0,3
1549,112.0,-267.0,-88.0,1973.0,-1183.0,460.0,361.0,-992.0,-274.0,3
1550,113.0,-260.0,-40.0,2411.0,-788.0,261.0,374.0,-939.0,-55.0,3
1551,109.0,-248.0,-11.0,2945.0,-442.0,189.0,373.0,-878.0,53.0,3
1552,98.0,-217.0,-16.0,3537.0,-200.0,187.0,347.0,-793.0,33.0,3
1553,93.0,-165.0,-92.0,4043.0,-7.0,216.0,311.0,-679.0,-253.0,3
1554,104.0,-88.0,-166.0,4164.0,203.0,251.0,355.0,-473.0,-551.0,3
1555,108.0,7.0,-236.0,3804.0,383.0,271.0,401.0,-195.0,-840.0,3
1556,119.0,90.0,-268.0,3004.0,447.0,249.0,460.0,102.0,-1009.0,3
1557,129.0,129.0,-271.0,1674.0,394.0,192.0,518.0,292.0,-1030.0,3
1558,141.0,140.0,-241.0,467.0,288.0,76.0,567.0,351.0,-909.0,3
1559,153.0,111.0,-174.0,-617.0,159.0,-98.0,614.0,292.0,-649.0,3
1560,149.0,45.0,-83.0,-1389.0,11.0,-326.0,604.0,128.0,-310.0,3
1561,139.0,-31.0,-25.0,-1757.0,-131.0,-531.0,554.0,-97.0,-53.0,3
1562,137.0,-97.0,16.0,-1746.0,-223.0,-656.0,516.0,-316.0,115.0,3
1563,137.0,-141.0,34.0,-1440.0,-250.0,-702.0,517.0,-462.0,212.0,3
1564,133.0,-147.0,36.0,-921.0,-232.0,-738.0,502.0,-497.0,228.0,3
1565,120.0,-127.0,32.0,-272.0,-188.0,-779.0,455.0,-420.0,209.0,3
1566,106.0,-93.0,28.0,439.0,-127.0,-814.0,379.0,-267.0,179.0,3
1567,73.0,-50.0,-3.0,1152.0,-53.0,-819.0,268.0,-126.0,77.0,3
1568,42.0,-15.0,-45.0,1762.0,19.0,-789.0,149.0,-31.0,-80.0,3
1569,6.0,17.0,-91.0,2173.0,95.0,-719.0,19.0,41.0,-273.0,3
1570,-26.0,42.0,-134.0,2334.0,143.0,-654.0,-110.0,108.0,-452.0,3
1571,-60.0,66.0,-167.0,2232.0,185.0,-584.0,-222.0,180.0,-571.0,3
1572,-82.0,78.0,-187.0,1992.0,227.0,-519.0,-300.0,224.0,-663.0,3
1573,-96.0,81.0,-211.0,1683.0,241.0,-464.0,-353.0,230.0,-752.0,3
1574,-101.0,76.0,-240.0,1351.0,208.0,-425.0,-376.0,221.0,-888.0,3
1575,-104.0,74.0,-276.0,1025.0,133.0,-383.0,-399.0,204.0,-1043.0,3
1576,-102.0,76.0,-321.0,688.0,56.0,-335.0,-400.0,211.0,-1200.0,3
1577,-89.0,79.0,-366.0,313.0,61.0,-275.0,-372.0,212.0,-1421.0,3
1578,-80.0,63.0,-372.0,-77.0,195.0,-242.0,-338.0,165.0,-1422.0,3
1579,-75.0,28.0,-311.0,-399.0,379.0,-227.0,-293.0,44.0,-1200.0,3
1580,-124.0,-14.0,-238.0,-620.0,430.0,-216.0,-435.0,-93.0,-912.0,3
1581,-271.0,-54.0,-232.0,-818.0,287.0,-106.0,-947.0,-299.0,-838.0,3
1582,-439.0,-137.0,-261.0,-1216.0,-24.0,204.0,-1582.0,-663.0,-954.0,3
1583,-522.0,-224.0,-281.0,-2244.0,-255.0,769.0,-2052.0,-1118.0,-1037.0,3
1584,-514.0,-364.0,-231.0,-3331.0,-428.0,1454.0,-1945.0,-1525.0,-869.0,3
1585,-334.0,-394.0,-253.0,-4155.0,-857.0,1819.0,-1158.0,-1549.0,-963.0,3
1586,-174.0,-389.0,-285.0,-4523.0,-1865.0,1416.0,-565.0,-1471.0,-1044.0,3
1587,-64.0,-400.0,-411.0,-4504.0,-2963.0,689.0,-284.0,-1525.0,-1498.0,3
1588,116.0,-410.0,-448.0,-4448.0,-3478.0,233.0,231.0,-1603.0,-1691.0,3
1589,273.0,-451.0,-427.0,-4365.0,-3233.0,77.0,779.0,-1724.0,-1642.0,3
1590,332.0,-502.0,-382.0,-4168.0,-2434.0,9.0,1067.0,-1872.0,-1489.0,3
1591,309.0,-540.0,-332.0,-3743.0,-1424.0,-52.0,1058.0,-2067.0,-1179.0,3
1592,261.0,-622.0,-236.0,-3022.0,-546.0,-109.0,885.0,-2323.0,-812.0,3
1593,206.0,-709.0,-153.0,-2059.0,12.0,-228.0,707.0,-2609.0,-520.0,3
1594,164.0,-754.0,-136.0,-1006.0,298.0,-521.0,589.0,-2799.0,-470.0,3
1595,129.0,-738.0,-167.0,68.0,339.0,-808.0,471.0,-2784.0,-579.0,3
1596,125.0,-699.0,-205.0,693.0,235.0,-1046.0,443.0,-2679.0,-722.0,3
1597,148.0,-647.0,-227.0,1071.0,158.0,-1248.0,499.0,-2513.0,-821.0,3
1598,174.0,-584.0,-221.0,1263.0,190.0,-1444.0,590.0,-2313.0,-822.0,3
1599,181.0,-521.0,-193.0,1351.0,357.0,-1581.0,621.0,-2090.0,-724.0,3
1600,160.0,-473.0,-162.0,1402.0,627.0,-1652.0,532.0,-1847.0,-552.0,3
1601,136.0,-425.0,-112.0,1426.0,921.0,-1651.0,480.0,-1678.0,-383.0,3
1602,148.0,-399.0,-75.0,1360.0,1114.0,-1567.0,525.0,-1617.0,-232.0,3
1603,182.0,-402.0,-44.0,1157.0,1185.0,-1369.0,643.0,-1612.0,-115.0,3
1604,232.0,-409.0,-38.0,869.0,1219.0,-1109.0,827.0,-1638.0,-79.0,3
1605,259.0,-411.0,-76.0,592.0,1279.0,-861.0,977.0,-1642.0,-211.0,3
1606,216.0,-389.0,-110.0,408.0,1334.0,-676.0,814.0,-1516.0,-338.0,3
1607,135.0,-386.0,-115.0,469.0,1367.0,-511.0,504.0,-1470.0,-396.0,3
1608,83.0,-391.0,-84.0,837.0,1384.0,-330.0,258.0,-1471.0,-245.0,3
1609,43.0,-397.0,-47.0,1370.0,1457.0,-120.0,104.0,-1447.0,-69.0,3
1610,1.0,-379.0,-25.0,2059.0,1591.0,14.0,-55.0,-1352.0,3.0,3
1611,-37.0,-328.0,-35.0,2862.0,1756.0,96.0,-182.0,-1178.0,-36.0,3
1612,-73.0,-244.0,-116.0,3652.0,1880.0,167.0,-256.0,-932.0,-341.0,3
1613,-102.0,-137.0,-179.0,4136.0,1767.0,248.0,-353.0,-612.0,-587.0,3
1614,-114.0,-21.0,-233.0,4222.0,1470.0,333.0,-383.0,-258.0,-835.0,3
1615,-103.0,82.0,-282.0,3898.0,1111.0,384.0,-362.0,82.0,-1037.0,3
1616,-97.0,176.0,-297.0,3208.0,784.0,381.0,-351.0,402.0,-1115.0,3
1617,-100.0,225.0,-292.0,2282.0,538.0,392.0,-358.0,662.0,-1115.0,3
1618,-104.0,255.0,-261.0,1249.0,366.0,457.0,-387.0,813.0,-983.0,3
1619,-107.0,249.0,-207.0,231.0,261.0,611.0,-415.0,799.0,-762.0,3
1620,-114.0,207.0,-146.0,-786.0,213.0,737.0,-440.0,691.0,-517.0,3
1621,-115.0,146.0,-83.0,-1379.0,225.0,865.0,-437.0,495.0,-263.0,3
1622,-111.0,70.0,-25.0,-1720.0,256.0,1000.0,-424.0,267.0,-34.0,3
1623,-109.0,-5.0,24.0,-1813.0,285.0,1133.0,-411.0,29.0,150.0,3
1624,-110.0,-68.0,54.0,-1675.0,291.0,1215.0,-416.0,-189.0,272.0,3
1625,-110.0,-105.0,71.0,-1347.0,258.0,1244.0,-397.0,-341.0,354.0,3
1626,-93.0,-127.0,81.0,-881.0,173.0,1215.0,-341.0,-413.0,380.0,3
1627,-54.0,-119.0,65.0,-352.0,37.0,1176.0,-195.0,-403.0,329.0,3
1628,-12.0,-110.0,34.0,156.0,-130.0,1144.0,-29.0,-376.0,231.0,3
1629,28.0,-83.0,5.0,586.0,-294.0,1103.0,97.0,-334.0,121.0,3
1630,52.0,-69.0,-25.0,917.0,-429.0,1036.0,205.0,-278.0,1.0,3
1631,80.0,-49.0,-49.0,1140.0,-536.0,960.0,297.0,-211.0,-113.0,3
1632,102.0,-25.0,-63.0,1267.0,-629.0,846.0,391.0,-115.0,-185.0,3
1633,112.0,1.0,-86.0,1318.0,-681.0,749.0,424.0,-39.0,-264.0,3
1634,115.0,22.0,-113.0,1291.0,-705.0,661.0,437.0,53.0,-392.0,3
1635,118.0,47.0,-161.0,1200.0,-701.0,606.0,456.0,123.0,-589.0,3
1636,131.0,66.0,-230.0,1028.0,-686.0,563.0,509.0,175.0,-848.0,3
1637,153.0,91.0,-292.0,741.0,-691.0,528.0,600.0,239.0,-1087.0,3
1638,188.0,118.0,-345.0,321.0,-734.0,482.0,726.0,314.0,-1307.0,3
1639,227.0,128.0,-381.0,-165.0,-780.0,434.0,850.0,379.0,-1452.0,3
1640,233.0,123.0,-385.0,-595.0,-735.0,379.0,878.0,387.0,-1489.0,3
1641,196.0,83.0,-367.0,-894.0,-538.0,316.0,745.0,288.0,-1425.0,3
1642,186.0,41.0,-347.0,-1112.0,-243.0,187.0,660.0,76.0,-1334.0,3
1643,213.0,-19.0,-321.0,-1403.0,98.0,-67.0,764.0,-171.0,-1239.0,3
1644,267.0,-82.0,-311.0,-1928.0,438.0,-453.0,963.0,-445.0,-1188.0,3
1645,315.0,-191.0,-315.0,-2754.0,812.0,-1059.0,1164.0,-941.0,-1163.0,3
1646,282.0,-297.0,-271.0,-3955.0,1031.0,-1731.0,1049.0,-1308.0,-1003.0,3
1647,154.0,-396.0,-211.0,-4757.0,1119.0,-2405.0,562.0,-1578.0,-754.0,3
1648,30.0,-460.0,-156.0,-5094.0,1143.0,-2835.0,75.0,-1714.0,-533.0,3
1649,-30.0,-518.0,-123.0,-4786.0,1293.0,-2891.0,-197.0,-1842.0,-397.0,3
1650,-60.0,-598.0,-145.0,-3910.0,1565.0,-2687.0,-275.0,-2111.0,-453.0,3
1651,-99.0,-685.0,-203.0,-2855.0,1750.0,-2320.0,-430.0,-2598.0,-727.0,3
1652,-219.0,-828.0,-263.0,-1985.0,1675.0,-1835.0,-877.0,-3144.0,-998.0,3
1653,-348.0,-942.0,-294.0,-1277.0,1389.0,-1139.0,-1341.0,-3554.0,-1108.0,3
1654,-351.0,-992.0,-256.0,-529.0,957.0,-176.0,-1389.0,-3723.0,-964.0,3
1655,-254.0,-936.0,-182.0,291.0,470.0,776.0,-1061.0,-3593.0,-691.0,3
1656,-192.0,-813.0,-159.0,844.0,180.0,1323.0,-849.0,-3270.0,-564.0,3
1657,-142.0,-686.0,-147.0,850.0,113.0,1617.0,-619.0,-2839.0,-514.0,3
1658,-117.0,-588.0,-180.0,329.0,-37.0,1783.0,-456.0,-2472.0,-632.0,3
1659,-97.0,-552.0,-212.0,-228.0,-358.0,2004.0,-355.0,-2195.0,-802.0,3
1660,-62.0,-556.0,-247.0,-627.0,-676.0,2250.0,-250.0,-2179.0,-934.0,3
1661,-22.0,-572.0,-260.0,-785.0,-857.0,2386.0,-110.0,-2222.0,-959.0,3
1662,-7.0,-569.0,-223.0,-778.0,-896.0,2275.0,-51.0,-2184.0,-823.0,3
1663,-16.0,-528.0,-137.0,-641.0,-881.0,1961.0,-96.0,-1980.0,-484.0,3
1664,-29.0,-457.0,-29.0,-282.0,-911.0,1579.0,-116.0,-1671.0,-59.0,3
1665,-29.0,-386.0,34.0,380.0,-1002.0,1267.0,-126.0,-1390.0,191.0,3
1666,-15.0,-327.0,27.0,1250.0,-1101.0,1080.0,-99.0,-1168.0,210.0,3
1667,34.0,-295.0,-16.0,2181.0,-1100.0,1018.0,31.0,-1049.0,68.0,3
1668,104.0,-304.0,-17.0,3026.0,-935.0,932.0,341.0,-1103.0,26.0,3
1669,133.0,-319.0,-2.0,3688.0,-751.0,678.0,485.0,-1186.0,82.0,3
1670,97.0,-304.0,5.0,4163.0,-606.0,233.0,368.0,-1155.0,121.0,3
1671,53.0,-247.0,-43.0,4533.0,-479.0,-2.0,199.0,-1004.0,-36.0,3
1672,41.0,-180.0,-110.0,4670.0,-240.0,-35.0,112.0,-748.0,-339.0,3
1673,30.0,-91.0,-201.0,4517.0,64.0,40.0,77.0,-499.0,-696.0,3
1674,16.0,6.0,-258.0,3920.0,302.0,107.0,47.0,-193.0,-947.0,3
1675,6.0,106.0,-283.0,2951.0,433.0,147.0,30.0,156.0,-1083.0,3
1676,16.0,164.0,-291.0,1760.0,483.0,160.0,66.0,423.0,-1107.0,3
1677,45.0,198.0,-279.0,505.0,485.0,117.0,175.0,558.0,-1061.0,3
1678,78.0,192.0,-238.0,-681.0,444.0,-19.0,316.0,580.0,-906.0,3
1679,128.0,156.0,-179.0,-1646.0,361.0,-232.0,506.0,496.0,-681.0,3
1680,177.0,90.0,-135.0,-2278.0,243.0,-489.0,681.0,323.0,-479.0,3
1681,210.0,23.0,-93.0,-2565.0,167.0,-720.0,786.0,114.0,-322.0,3
1682,217.0,-38.0,-57.0,-2529.0,197.0,-904.0,813.0,-81.0,-183.0,3
1683,199.0,-85.0,-31.0,-2105.0,355.0,-984.0,762.0,-236.0,-59.0,3
1684,157.0,-110.0,6.0,-1495.0,504.0,-1034.0,637.0,-317.0,60.0,3
1685,112.0,-115.0,28.0,-707.0,584.0,-1046.0,449.0,-327.0,201.0,3
1686,63.0,-90.0,47.0,173.0,566.0,-1028.0,234.0,-229.0,264.0,3
1687,23.0,-57.0,37.0,1037.0,476.0,-966.0,99.0,-144.0,215.0,3
1688,0.0,-23.0,4.0,1742.0,375.0,-859.0,11.0,-53.0,91.0,3
1689,-15.0,16.0,-43.0,2192.0,310.0,-729.0,-60.0,53.0,-81.0,3
1690,-38.0,59.0,-81.0,2374.0,303.0,-602.0,-143.0,166.0,-222.0,3
1691,-50.0,89.0,-106.0,2324.0,348.0,-475.0,-196.0,261.0,-327.0,3
1692,-61.0,104.0,-135.0,2099.0,411.0,-369.0,-227.0,319.0,-431.0,3
1693,-64.0,114.0,-160.0,1745.0,447.0,-293.0,-245.0,338.0,-567.0,3
1694,-74.0,121.0,-203.0,1287.0,437.0,-247.0,-274.0,343.0,-755.0,3
1695,-82.0,123.0,-253.0,747.0,376.0,-208.0,-301.0,349.0,-936.0,3
1696,-78.0,125.0,-307.0,17.0,325.0,-172.0,-302.0,348.0,-1138.0,3
1697,-68.0,129.0,-385.0,-638.0,330.0,-131.0,-283.0,355.0,-1426.0,3
1698,-67.0,124.0,-440.0,-1265.0,454.0,-129.0,-282.0,368.0,-1687.0,3
1699,-90.0,116.0,-425.0,-1750.0,648.0,-169.0,-340.0,361.0,-1648.0,3
1700,-123.0,75.0,-353.0,-1998.0,730.0,-218.0,-466.0,266.0,-1387.0,3
1701,-189.0,22.0,-306.0,-2062.0,619.0,-211.0,-667.0,38.0,-1183.0,3
1702,-268.0,-21.0,-292.0,-2209.0,347.0,-88.0,-1027.0,-235.0,-1103.0,3
1703,-375.0,-111.0,-291.0,-2622.0,-35.0,193.0,-1423.0,-603.0,-1101.0,3
1704,-444.0,-213.0,-310.0,-3325.0,-518.0,604.0,-1657.0,-994.0,-1153.0,3
1705,-402.0,-316.0,-263.0,-4178.0,-1026.0,1068.0,-1544.0,-1295.0,-994.0,3
1706,-251.0,-446.0,-191.0,-4774.0,-1424.0,1433.0,-1025.0,-1656.0,-684.0,3
1707,-29.0,-567.0,-256.0,-4795.0,-1726.0,1504.0,-177.0,-2089.0,-830.0,3
1708,163.0,-684.0,-402.0,-4550.0,-2128.0,1102.0,482.0,-2600.0,-1433.0,3
1709,260.0,-782.0,-458.0,-4661.0,-2202.0,437.0,813.0,-3046.0,-1734.0,3
1710,284.0,-828.0,-407.0,-4853.0,-1739.0,-232.0,882.0,-3181.0,-1532.0,3
1711,273.0,-831.0,-313.0,-4585.0,-762.0,-681.0,836.0,-3096.0,-1183.0,3
1712,254.0,-806.0,-187.0,-3671.0,350.0,-856.0,841.0,-2926.0,-616.0,3
1713,216.0,-776.0,-90.0,-2291.0,1056.0,-867.0,808.0,-2817.0,-273.0,3
1714,174.0,-758.0,-59.0,-814.0,1100.0,-876.0,710.0,-2778.0,-170.0,3
1715,168.0,-722.0,-89.0,458.0,705.0,-975.0,654.0,-2702.0,-262.0,3
1716,186.0,-664.0,-126.0,1317.0,257.0,-1135.0,705.0,-2580.0,-411.0,3
1717,217.0,-612.0,-158.0,1717.0,-23.0,-1260.0,776.0,-2432.0,-529.0,3
1718,233.0,-554.0,-184.0,1761.0,-56.0,-1331.0,825.0,-2238.0,-620.0,3
1719,232.0,-513.0,-194.0,1647.0,166.0,-1362.0,804.0,-2020.0,-696.0,3
1720,202.0,-455.0,-204.0,1512.0,617.0,-1373.0,703.0,-1809.0,-732.0,3
1721,146.0,-407.0,-201.0,1399.0,973.0,-1346.0,513.0,-1619.0,-718.0,3
1722,101.0,-367.0,-186.0,1335.0,1242.0,-1260.0,348.0,-1475.0,-661.0,3
1723,92.0,-332.0,-175.0,1264.0,1445.0,-1123.0,297.0,-1352.0,-608.0,3
1724,96.0,-296.0,-181.0,1188.0,1632.0,-982.0,324.0,-1207.0,-623.0,3
1725,94.0,-252.0,-164.0,1164.0,1799.0,-829.0,337.0,-1022.0,-596.0,3
1726,60.0,-210.0,-118.0,1333.0,1913.0,-687.0,272.0,-768.0,-397.0,3
1727,6.0,-212.0,-94.0,1774.0,1977.0,-585.0,-53.0,-802.0,-282.0,3
1728,-82.0,-242.0,-78.0,2269.0,2010.0,-399.0,-377.0,-925.0,-203.0,3
1729,-130.0,-250.0,-52.0,2631.0,2053.0,-60.0,-533.0,-939.0,-105.0,3
1730,-129.0,-229.0,-17.0,2933.0,2094.0,244.0,-500.0,-838.0,19.0,3
1731,-124.0,-165.0,-51.0,3282.0,2083.0,357.0,-439.0,-650.0,-94.0,3
1732,-130.0,-79.0,-92.0,3470.0,1767.0,315.0,-416.0,-379.0,-273.0,3
1733,-110.0,25.0,-160.0,3290.0,1231.0,281.0,-354.0,-61.0,-535.0,3
1734,-75.0,131.0,-226.0,2755.0,639.0,269.0,-251.0,286.0,-819.0,3
1735,-48.0,212.0,-264.0,1905.0,169.0,277.0,-159.0,561.0,-989.0,3
1736,-25.0,242.0,-254.0,872.0,-109.0,355.0,-93.0,733.0,-949.0,3
1737,-6.0,246.0,-204.0,-171.0,-201.0,525.0,-14.0,775.0,-771.0,3
1738,11.0,204.0,-144.0,-1071.0,-159.0,734.0,32.0,671.0,-539.0,3
1739,12.0,136.0,-90.0,-1734.0,-37.0,942.0,25.0,486.0,-261.0,3
1740,4.0,63.0,-44.0,-2118.0,127.0,1121.0,4.0,209.0,-94.0,3
1741,-2.0,-4.0,-18.0,-2247.0,298.0,1253.0,-14.0,-2.0,13.0,3
1742,-12.0,-60.0,7.0,-2152.0,433.0,1325.0,-40.0,-189.0,100.0,3
1743,-22.0,-101.0,22.0,-1869.0,504.0,1353.0,-69.0,-312.0,176.0,3
1744,-26.0,-125.0,44.0,-1409.0,499.0,1326.0,-78.0,-411.0,247.0,3
1745,-19.0,-135.0,55.0,-670.0,394.0,1276.0,-45.0,-437.0,283.0,3
1746,0.0,-133.0,39.0,25.0,233.0,1226.0,29.0,-441.0,248.0,3
1747,30.0,-126.0,16.0,677.0,29.0,1179.0,141.0,-431.0,144.0,3
1748,60.0,-104.0,-14.0,1200.0,-176.0,1113.0,241.0,-382.0,49.0,3
1749,84.0,-76.0,-44.0,1583.0,-344.0,1033.0,317.0,-306.0,-65.0,3
1750,102.0,-49.0,-70.0,1836.0,-443.0,934.0,369.0,-225.0,-169.0,3
1751,112.0,-24.0,-116.0,1961.0,-472.0,825.0,408.0,-148.0,-320.0,3
1752,125.0,2.0,-204.0,1953.0,-441.0,704.0,454.0,-77.0,-609.0,3
1753,144.0,18.0,-285.0,1786.0,-365.0,582.0,526.0,-8.0,-1131.0,3
1754,185.0,44.0,-356.0,1452.0,-280.0,457.0,741.0,51.0,-1381.0,3
1755,240.0,85.0,-383.0,973.0,-241.0,328.0,962.0,193.0,-1478.0,3
1756,312.0,116.0,-395.0,422.0,-272.0,207.0,1229.0,317.0,-1552.0,3
1757,351.0,124.0,-365.0,-87.0,-356.0,59.0,1365.0,362.0,-1428.0,3
1758,279.0,111.0,-325.0,-561.0,-413.0,-90.0,1125.0,317.0,-1274.0,3
1759,236.0,64.0,-305.0,-940.0,-456.0,-261.0,919.0,148.0,-1164.0,3
1760,261.0,-21.0,-317.0,-1468.0,-485.0,-579.0,982.0,-158.0,-1213.0,3
1761,298.0,-122.0,-321.0,-2185.0,-481.0,-1116.0,1128.0,-640.0,-1222.0,3
1762,292.0,-282.0,-297.0,-2940.0,-374.0,-1844.0,1069.0,-1183.0,-1099.0,3
1763,167.0,-385.0,-270.0,-3509.0,-116.0,-2605.0,570.0,-1539.0,-1003.0,3
1764,0.0,-398.0,-254.0,-3787.0,364.0,-3037.0,-82.0,-1531.0,-918.0,3
1765,-115.0,-436.0,-205.0,-3643.0,951.0,-2954.0,-497.0,-1561.0,-741.0,3
1766,-144.0,-515.0,-179.0,-3012.0,1412.0,-2627.0,-612.0,-1799.0,-630.0,3
1767,-194.0,-607.0,-225.0,-2152.0,1632.0,-2352.0,-758.0,-2291.0,-800.0,3
1768,-318.0,-706.0,-329.0,-1498.0,1553.0,-2097.0,-1192.0,-2735.0,-1213.0,3
1769,-476.0,-878.0,-359.0,-1289.0,1247.0,-1436.0,-1798.0,-3395.0,-1378.0,3
1770,-488.0,-978.0,-305.0,-1377.0,769.0,-380.0,-1826.0,-3779.0,-1099.0,3
1771,-341.0,-964.0,-144.0,-1131.0,278.0,753.0,-1288.0,-3573.0,-480.0,3
1772,-219.0,-876.0,-18.0,-421.0,-136.0,1449.0,-888.0,-3260.0,4.0,3
1773,-139.0,-767.0,15.0,267.0,-366.0,1756.0,-570.0,-2914.0,150.0,3
1774,-80.0,-654.0,-16.0,689.0,-575.0,1913.0,-340.0,-2562.0,42.0,3
1775,-24.0,-570.0,-84.0,802.0,-800.0,2009.0,-133.0,-2266.0,-204.0,3
1776,11.0,-505.0,-131.0,710.0,-997.0,2047.0,15.0,-2018.0,-414.0,3
1777,27.0,-471.0,-179.0,609.0,-1170.0,2038.0,93.0,-1864.0,-587.0,3
1778,21.0,-457.0,-199.0,566.0,-1312.0,1959.0,77.0,-1794.0,-717.0,3
1779,3.0,-435.0,-204.0,516.0,-1395.0,1796.0,-19.0,-1727.0,-741.0,3
1780,-26.0,-386.0,-171.0,383.0,-1424.0,1595.0,-106.0,-1515.0,-584.0,3
1781,-52.0,-336.0,-120.0,180.0,-1480.0,1409.0,-196.0,-1339.0,-408.0,3
1782,-55.0,-289.0,-116.0,-39.0,-1620.0,1231.0,-226.0,-1123.0,-380.0,3
1783,-39.0,-248.0,-110.0,-146.0,-1685.0,1114.0,-175.0,-930.0,-359.0,3
1784,19.0,-254.0,-66.0,64.0,-1644.0,1006.0,41.0,-900.0,-210.0,3
1785,88.0,-301.0,-29.0,556.0,-1559.0,835.0,286.0,-1061.0,-57.0,3
1786,96.0,-332.0,20.0,1195.0,-1437.0,568.0,330.0,-1175.0,135.0,3
1787,80.0,-325.0,33.0,1919.0,-1267.0,343.0,251.0,-1152.0,233.0,3
1788,62.0,-286.0,4.0,2681.0,-1022.0,271.0,175.0,-1038.0,126.0,3
1789,61.0,-218.0,-117.0,3313.0,-693.0,317.0,173.0,-880.0,-335.0,3
1790,76.0,-140.0,-205.0,3513.0,-354.0,384.0,240.0,-658.0,-683.0,3
1791,82.0,-60.0,-251.0,3290.0,-85.0,381.0,290.0,-391.0,-887.0,3
1792,79.0,17.0,-287.0,2753.0,72.0,309.0,299.0,-136.0,-1062.0,3
1793,84.0,73.0,-288.0,1961.0,111.0,194.0,317.0,63.0,-1114.0,3
1794,84.0,101.0,-245.0,1016.0,79.0,19.0,336.0,216.0,-955.0,3
1795,85.0,100.0,-184.0,-113.0,-23.0,-147.0,366.0,243.0,-612.0,3
1796,90.0,67.0,-87.0,-859.0,-172.0,-331.0,368.0,174.0,-258.0,3
1797,91.0,15.0,-4.0,-1311.0,-317.0,-534.0,356.0,34.0,57.0,3
1798,84.0,-37.0,43.0,-1427.0,-418.0,-721.0,339.0,-144.0,237.0,3
1799,88.0,-87.0,54.0,-1256.0,-463.0,-853.0,317.0,-299.0,287.0,3
1800,97.0,-119.0,37.0,-879.0,-436.0,-910.0,348.0,-406.0,244.0,3
1801,114.0,-136.0,13.0,-354.0,-330.0,-918.0,400.0,-463.0,158.0,3
1802,123.0,-133.0,-12.0,273.0,-168.0,-899.0,440.0,-443.0,67.0,3
1803,114.0,-108.0,-45.0,968.0,7.0,-860.0,430.0,-371.0,-56.0,3
1804,99.0,-84.0,-66.0,1643.0,163.0,-814.0,354.0,-282.0,-167.0,3
1805,66.0,-43.0,-91.0,2196.0,280.0,-766.0,251.0,-168.0,-271.0,3
1806,35.0,-2.0,-116.0,2555.0,358.0,-706.0,136.0,-37.0,-363.0,3
1807,2.0,36.0,-126.0,2690.0,410.0,-634.0,36.0,69.0,-427.0,3
1808,-23.0,64.0,-127.0,2576.0,429.0,-579.0,-85.0,182.0,-432.0,3
1809,-40.0,82.0,-130.0,2306.0,422.0,-532.0,-137.0,227.0,-444.0,3
1810,-46.0,82.0,-158.0,1942.0,363.0,-496.0,-147.0,233.0,-551.0,3
1811,-51.0,75.0,-216.0,1527.0,231.0,-461.0,-163.0,203.0,-773.0,3
1812,-58.0,68.0,-262.0,1094.0,43.0,-418.0,-211.0,161.0,-1009.0,3
1813,-63.0,66.0,-326.0,646.0,-137.0,-363.0,-247.0,159.0,-1273.0,3
1814,-61.0,86.0,-427.0,130.0,-207.0,-293.0,-273.0,188.0,-1652.0,3
1815,-76.0,92.0,-503.0,-494.0,-98.0,-253.0,-326.0,214.0,-1960.0,3
1816,-93.0,72.0,-464.0,-1104.0,92.0,-269.0,-367.0,213.0,-1853.0,3
1817,-92.0,29.0,-341.0,-1470.0,146.0,-302.0,-328.0,102.0,-1403.0,3
1818,-163.0,-8.0,-263.0,-1609.0,-20.0,-294.0,-520.0,-79.0,-1047.0,3
1819,-324.0,-71.0,-247.0,-1799.0,-234.0,-118.0,-1112.0,-355.0,-906.0,3
1820,-436.0,-193.0,-265.0,-2535.0,-296.0,325.0,-1643.0,-802.0,-912.0,3
1821,-475.0,-287.0,-258.0,-3667.0,-228.0,935.0,-1834.0,-1378.0,-966.0,3
1822,-384.0,-383.0,-248.0,-4919.0,-403.0,1421.0,-1261.0,-1580.0,-904.0,3
1823,-249.0,-436.0,-291.0,-5760.0,-1178.0,1424.0,-802.0,-1605.0,-1104.0,3
1824,-88.0,-475.0,-423.0,-6110.0,-2157.0,1063.0,-326.0,-1891.0,-1621.0,3
1825,105.0,-601.0,-445.0,-6254.0,-2693.0,627.0,322.0,-2292.0,-1706.0,3
1826,251.0,-723.0,-436.0,-6154.0,-2540.0,278.0,771.0,-2733.0,-1635.0,3
1827,279.0,-787.0,-329.0,-5659.0,-1843.0,47.0,889.0,-2843.0,-1262.0,3
1828,239.0,-831.0,-227.0,-4384.0,-943.0,-47.0,786.0,-2894.0,-854.0,3
1829,209.0,-860.0,-167.0,-2431.0,-102.0,-75.0,710.0,-3023.0,-514.0,3
1830,181.0,-838.0,-115.0,-368.0,427.0,-176.0,690.0,-3081.0,-365.0,3
1831,150.0,-791.0,-113.0,1290.0,518.0,-405.0,574.0,-2963.0,-365.0,3
1832,143.0,-713.0,-114.0,2354.0,305.0,-592.0,516.0,-2759.0,-369.0,3
1833,177.0,-632.0,-145.0,2951.0,198.0,-796.0,622.0,-2511.0,-451.0,3
1834,199.0,-546.0,-179.0,2975.0,249.0,-1040.0,700.0,-2255.0,-630.0,3
1835,200.0,-474.0,-214.0,2697.0,421.0,-1284.0,703.0,-1948.0,-713.0,3
