,acc1_x,acc1_y,acc1_z,gyro_x,gyro_y,gyro_z,acc2_x,acc2_y,acc2_z,label
1855,-2.0,-219.0,-108.0,9.0,1138.0,502.0,3.0,-853.0,-291.0,6
1856,-2.0,-224.0,-105.0,-2.0,1148.0,495.0,-13.0,-855.0,-292.0,6
1857,-9.0,-220.0,-110.0,-17.0,1152.0,480.0,-24.0,-852.0,-289.0,6
1858,-12.0,-219.0,-102.0,-36.0,1149.0,464.0,-40.0,-848.0,-276.0,6
1859,-16.0,-220.0,-100.0,-54.0,1139.0,445.0,-53.0,-846.0,-267.0,6
1860,-17.0,-222.0,-95.0,-66.0,1125.0,431.0,-75.0,-845.0,-248.0,6
1861,-27.0,-220.0,-96.0,-72.0,1104.0,415.0,-81.0,-852.0,-235.0,6
1862,-23.0,-223.0,-90.0,-68.0,1081.0,405.0,-88.0,-854.0,-231.0,6
1863,-30.0,-226.0,-90.0,-57.0,1054.0,392.0,-98.0,-860.0,-226.0,6
1864,-28.0,-221.0,-88.0,-41.0,1031.0,383.0,-105.0,-861.0,-228.0,6
1865,-28.0,-222.0,-91.0,-29.0,1009.0,372.0,-109.0,-857.0,-228.0,6
1866,-26.0,-224.0,-92.0,-21.0,990.0,362.0,-105.0,-855.0,-227.0,6
1867,-27.0,-219.0,-88.0,-18.0,975.0,350.0,-100.0,-844.0,-221.0,6
1868,-24.0,-217.0,-87.0,-17.0,961.0,339.0,-96.0,-840.0,-214.0,6
1869,-23.0,-215.0,-82.0,-15.0,948.0,329.0,-86.0,-832.0,-207.0,6
1870,-24.0,-216.0,-84.0,-12.0,942.0,319.0,-83.0,-836.0,-197.0,6
1871,-19.0,-218.0,-83.0,-2.0,938.0,306.0,-79.0,-841.0,-197.0,6
1872,-16.0,-220.0,-86.0,9.0,938.0,296.0,-70.0,-848.0,-199.0,6
1873,-13.0,-224.0,-83.0,18.0,940.0,282.0,-55.0,-854.0,-200.0,6
1874,-12.0,-224.0,-84.0,25.0,948.0,265.0,-39.0,-860.0,-195.0,6
1875,-6.0,-226.0,-84.0,32.0,959.0,249.0,-32.0,-868.0,-200.0,6
1876,-7.0,-226.0,-79.0,39.0,973.0,232.0,-18.0,-872.0,-200.0,6
1877,-4.0,-227.0,-83.0,43.0,988.0,217.0,-17.0,-872.0,-201.0,6
1878,-3.0,-225.0,-85.0,43.0,1002.0,202.0,-10.0,-863.0,-194.0,6
1879,-2.0,-226.0,-84.0,40.0,1016.0,190.0,-8.0,-861.0,-201.0,6
1880,-4.0,-220.0,-81.0,37.0,1028.0,177.0,-8.0,-853.0,-189.0,6
1881,-3.0,-219.0,-81.0,35.0,1039.0,167.0,-11.0,-837.0,-188.0,6
1882,-5.0,-212.0,-83.0,32.0,1047.0,159.0,-13.0,-826.0,-186.0,6
1883,-3.0,-210.0,-72.0,28.0,1051.0,149.0,-8.0,-814.0,-183.0,6
1884,-3.0,-208.0,-73.0,28.0,1050.0,138.0,-7.0,-798.0,-176.0,6
1885,-5.0,-203.0,-74.0,27.0,1044.0,124.0,-7.0,-788.0,-175.0,6
1886,-6.0,-196.0,-74.0,26.0,1031.0,106.0,-7.0,-774.0,-167.0,6
1887,-4.0,-196.0,-75.0,27.0,1009.0,90.0,-6.0,-766.0,-162.0,6
1888,-3.0,-193.0,-79.0,31.0,980.0,70.0,-10.0,-753.0,-158.0,6
1889,-9.0,-190.0,-71.0,41.0,952.0,57.0,-16.0,-745.0,-151.0,6
1890,-4.0,-194.0,-72.0,50.0,934.0,47.0,-13.0,-743.0,-155.0,6
1891,-3.0,-191.0,-74.0,60.0,929.0,39.0,-15.0,-739.0,-156.0,6
1892,-1.0,-190.0,-81.0,65.0,937.0,29.0,-7.0,-726.0,-166.0,6
1893,3.0,-184.0,-76.0,63.0,957.0,17.0,3.0,-718.0,-170.0,6
1894,10.0,-182.0,-81.0,56.0,988.0,-1.0,34.0,-704.0,-184.0,6
1895,18.0,-178.0,-83.0,44.0,1029.0,-23.0,54.0,-681.0,-190.0,6
1896,24.0,-171.0,-84.0,35.0,1082.0,-51.0,87.0,-653.0,-189.0,6
1897,33.0,-167.0,-80.0,33.0,1144.0,-84.0,110.0,-628.0,-187.0,6
1898,33.0,-153.0,-78.0,39.0,1208.0,-116.0,128.0,-598.0,-184.0,6
1899,39.0,-151.0,-74.0,56.0,1265.0,-146.0,141.0,-580.0,-177.0,6
1900,42.0,-148.0,-72.0,82.0,1313.0,-168.0,143.0,-555.0,-164.0,6
1901,39.0,-141.0,-75.0,104.0,1346.0,-185.0,152.0,-529.0,-153.0,6
1902,40.0,-136.0,-74.0,127.0,1368.0,-195.0,146.0,-519.0,-154.0,6
1903,39.0,-131.0,-76.0,138.0,1384.0,-197.0,149.0,-509.0,-162.0,6
1904,36.0,-131.0,-80.0,133.0,1399.0,-200.0,145.0,-505.0,-178.0,6
1905,39.0,-136.0,-77.0,111.0,1422.0,-201.0,139.0,-516.0,-175.0,6
1906,34.0,-138.0,-77.0,79.0,1449.0,-194.0,135.0,-531.0,-171.0,6
1907,35.0,-150.0,-75.0,39.0,1481.0,-181.0,130.0,-572.0,-159.0,6
1908,26.0,-161.0,-72.0,-5.0,1509.0,-165.0,113.0,-614.0,-150.0,6
1909,20.0,-177.0,-66.0,-44.0,1533.0,-145.0,90.0,-688.0,-136.0,6
1910,17.0,-193.0,-63.0,-75.0,1548.0,-126.0,55.0,-746.0,-120.0,6
1911,7.0,-206.0,-61.0,-85.0,1551.0,-111.0,34.0,-802.0,-105.0,6
1912,2.0,-221.0,-59.0,-77.0,1542.0,-103.0,11.0,-855.0,-100.0,6
1913,-2.0,-233.0,-59.0,-44.0,1514.0,-96.0,-7.0,-893.0,-97.0,6
1914,-9.0,-241.0,-57.0,5.0,1474.0,-94.0,-19.0,-919.0,-93.0,6
1915,-11.0,-243.0,-58.0,65.0,1420.0,-97.0,-37.0,-930.0,-99.0,6
1916,-16.0,-243.0,-64.0,125.0,1360.0,-101.0,-51.0,-930.0,-115.0,6
1917,-16.0,-236.0,-66.0,176.0,1297.0,-107.0,-67.0,-925.0,-137.0,6
1918,-18.0,-240.0,-72.0,215.0,1231.0,-110.0,-75.0,-919.0,-152.0,6
1919,-21.0,-239.0,-71.0,238.0,1165.0,-111.0,-80.0,-911.0,-160.0,6
1920,-23.0,-235.0,-75.0,255.0,1107.0,-109.0,-84.0,-912.0,-158.0,6
1921,-23.0,-238.0,-73.0,271.0,1060.0,-100.0,-78.0,-918.0,-165.0,6
1922,-27.0,-230.0,-80.0,283.0,1024.0,-88.0,-72.0,-931.0,-168.0,6
1923,-18.0,-245.0,-77.0,292.0,992.0,-76.0,-77.0,-949.0,-173.0,6
1924,-21.0,-249.0,-76.0,293.0,962.0,-66.0,-80.0,-963.0,-181.0,6
1925,-29.0,-252.0,-82.0,286.0,935.0,-54.0,-104.0,-980.0,-191.0,6
1926,-34.0,-255.0,-84.0,265.0,913.0,-39.0,-127.0,-990.0,-202.0,6
1927,-39.0,-256.0,-85.0,233.0,890.0,-23.0,-145.0,-996.0,-204.0,6
1928,-44.0,-257.0,-84.0,197.0,871.0,-14.0,-161.0,-999.0,-201.0,6
1929,-49.0,-256.0,-84.0,156.0,858.0,-10.0,-177.0,-992.0,-192.0,6
1930,-50.0,-256.0,-76.0,111.0,848.0,-8.0,-187.0,-991.0,-178.0,6
1931,-51.0,-255.0,-72.0,67.0,833.0,-4.0,-194.0,-992.0,-152.0,6
1932,-53.0,-258.0,-61.0,23.0,799.0,2.0,-191.0,-1002.0,-125.0,6
1933,-54.0,-258.0,-56.0,-14.0,748.0,12.0,-191.0,-998.0,-101.0,6
1934,-50.0,-262.0,-55.0,-37.0,684.0,20.0,-184.0,-1008.0,-80.0,6
1935,-50.0,-264.0,-49.0,-44.0,626.0,27.0,-180.0,-1017.0,-62.0,6
1936,-44.0,-264.0,-46.0,-26.0,581.0,33.0,-168.0,-1015.0,-43.0,6
1937,-42.0,-267.0,-39.0,8.0,549.0,41.0,-160.0,-1022.0,-25.0,6
1938,-39.0,-265.0,-35.0,60.0,530.0,46.0,-145.0,-1034.0,-7.0,6
1939,-30.0,-270.0,-30.0,119.0,525.0,46.0,-124.0,-1045.0,13.0,6
1940,-24.0,-277.0,-24.0,187.0,529.0,36.0,-102.0,-1074.0,38.0,6
1941,-15.0,-284.0,-18.0,258.0,531.0,17.0,-69.0,-1077.0,67.0,6
1942,-15.0,-285.0,-14.0,331.0,525.0,-11.0,-37.0,-1098.0,83.0,6
1943,-10.0,-289.0,-13.0,400.0,501.0,-40.0,-16.0,-1112.0,87.0,6
1944,0.0,-291.0,-12.0,458.0,465.0,-67.0,24.0,-1112.0,59.0,6
1945,12.0,-289.0,-32.0,495.0,425.0,-92.0,42.0,-1107.0,11.0,6
1946,7.0,-282.0,-48.0,506.0,398.0,-113.0,28.0,-1094.0,-41.0,6
1947,-5.0,-274.0,-59.0,492.0,393.0,-129.0,-9.0,-1070.0,-99.0,6
1948,-10.0,-264.0,-75.0,455.0,401.0,-134.0,-43.0,-1038.0,-166.0,6
1949,-14.0,-251.0,-99.0,396.0,399.0,-119.0,-30.0,-986.0,-249.0,6
1950,9.0,-243.0,-119.0,325.0,391.0,-90.0,37.0,-943.0,-345.0,6
1951,31.0,-229.0,-137.0,249.0,408.0,-63.0,109.0,-908.0,-418.0,6
1952,49.0,-231.0,-147.0,180.0,492.0,-50.0,171.0,-892.0,-451.0,6
1953,70.0,-228.0,-152.0,120.0,656.0,-44.0,229.0,-888.0,-471.0,6
1954,80.0,-232.0,-152.0,59.0,861.0,-30.0,292.0,-900.0,-481.0,6
1955,86.0,-238.0,-153.0,-8.0,1028.0,0.0,330.0,-929.0,-480.0,6
1956,81.0,-247.0,-150.0,-88.0,1077.0,44.0,331.0,-953.0,-483.0,6
1957,69.0,-249.0,-151.0,-189.0,976.0,93.0,310.0,-976.0,-486.0,6
1958,53.0,-253.0,-149.0,-298.0,745.0,149.0,262.0,-987.0,-488.0,6
1959,42.0,-262.0,-153.0,-394.0,438.0,219.0,201.0,-1019.0,-493.0,6
1960,24.0,-275.0,-156.0,-462.0,118.0,290.0,123.0,-1061.0,-503.0,6
1961,5.0,-290.0,-157.0,-499.0,-148.0,343.0,47.0,-1110.0,-495.0,6
1962,-7.0,-308.0,-149.0,-506.0,-326.0,374.0,-9.0,-1167.0,-485.0,6
1963,-11.0,-317.0,-140.0,-473.0,-420.0,381.0,-35.0,-1227.0,-448.0,6
1964,-7.0,-340.0,-132.0,-402.0,-447.0,360.0,-34.0,-1295.0,-402.0,6
1965,-8.0,-362.0,-125.0,-296.0,-428.0,316.0,-36.0,-1355.0,-357.0,6
1966,-8.0,-373.0,-116.0,-187.0,-386.0,253.0,-43.0,-1417.0,-324.0,6
1967,-13.0,-387.0,-113.0,-102.0,-347.0,179.0,-46.0,-1482.0,-311.0,6
1968,-16.0,-402.0,-112.0,-57.0,-334.0,104.0,-53.0,-1539.0,-310.0,6
1969,-17.0,-417.0,-115.0,-44.0,-353.0,31.0,-61.0,-1605.0,-330.0,6
1970,-16.0,-426.0,-124.0,-46.0,-389.0,-34.0,-51.0,-1651.0,-384.0,6
1971,-8.0,-432.0,-138.0,-55.0,-419.0,-93.0,-36.0,-1664.0,-438.0,6
1972,3.0,-432.0,-145.0,-67.0,-427.0,-138.0,4.0,-1661.0,-447.0,6
1973,13.0,-423.0,-133.0,-68.0,-402.0,-162.0,41.0,-1632.0,-413.0,6
1974,23.0,-412.0,-117.0,-34.0,-357.0,-164.0,92.0,-1592.0,-335.0,6
1975,39.0,-404.0,-100.0,46.0,-304.0,-147.0,147.0,-1536.0,-258.0,6
1976,52.0,-394.0,-82.0,154.0,-254.0,-118.0,201.0,-1503.0,-195.0,6
1977,64.0,-377.0,-74.0,267.0,-209.0,-92.0,267.0,-1456.0,-160.0,6
1978,93.0,-368.0,-70.0,354.0,-166.0,-82.0,350.0,-1409.0,-148.0,6
1979,109.0,-351.0,-67.0,408.0,-134.0,-88.0,422.0,-1353.0,-137.0,6
1980,120.0,-337.0,-62.0,436.0,-115.0,-100.0,468.0,-1301.0,-126.0,6
1981,134.0,-319.0,-64.0,446.0,-112.0,-103.0,506.0,-1251.0,-129.0,6
1982,135.0,-312.0,-62.0,444.0,-125.0,-91.0,512.0,-1208.0,-134.0,6
1983,130.0,-305.0,-69.0,422.0,-147.0,-68.0,498.0,-1181.0,-162.0,6
1984,122.0,-303.0,-73.0,379.0,-158.0,-39.0,452.0,-1162.0,-184.0,6
1985,107.0,-295.0,-83.0,311.0,-150.0,-13.0,394.0,-1152.0,-196.0,6
1986,85.0,-294.0,-83.0,229.0,-125.0,5.0,325.0,-1144.0,-200.0,6
1987,50.0,-288.0,-82.0,141.0,-93.0,14.0,243.0,-1134.0,-207.0,6
1988,47.0,-289.0,-86.0,64.0,-64.0,16.0,173.0,-1124.0,-215.0,6
1989,27.0,-285.0,-85.0,-4.0,-49.0,11.0,100.0,-1110.0,-213.0,6
1990,9.0,-280.0,-88.0,-66.0,-42.0,5.0,41.0,-1097.0,-218.0,6
1991,-10.0,-276.0,-87.0,-124.0,-52.0,-4.0,-14.0,-1085.0,-223.0,6
1992,-16.0,-275.0,-92.0,-181.0,-74.0,-11.0,-51.0,-1077.0,-232.0,6
1993,-22.0,-273.0,-91.0,-234.0,-111.0,-19.0,-84.0,-1056.0,-236.0,6
1994,-26.0,-268.0,-89.0,-272.0,-156.0,-30.0,-105.0,-1043.0,-233.0,6
1995,-31.0,-262.0,-91.0,-293.0,-207.0,-43.0,-112.0,-1022.0,-234.0,6
1996,-31.0,-259.0,-92.0,-300.0,-259.0,-52.0,-120.0,-997.0,-247.0,6
1997,-32.0,-252.0,-95.0,-299.0,-309.0,-56.0,-117.0,-978.0,-257.0,6
1998,-25.0,-247.0,-101.0,-301.0,-355.0,-58.0,-86.0,-953.0,-269.0,6
1999,-14.0,-241.0,-99.0,-305.0,-397.0,-61.0,-51.0,-939.0,-266.0,6
2000,-4.0,-236.0,-93.0,-304.0,-438.0,-64.0,-23.0,-914.0,-255.0,6
2001,3.0,-232.0,-92.0,-286.0,-478.0,-65.0,24.0,-895.0,-227.0,6
2002,12.0,-226.0,-89.0,-248.0,-517.0,-65.0,59.0,-857.0,-203.0,6
2003,23.0,-219.0,-79.0,-190.0,-548.0,-62.0,100.0,-836.0,-190.0,6
2004,33.0,-213.0,-78.0,-127.0,-568.0,-54.0,132.0,-813.0,-184.0,6
2005,41.0,-206.0,-78.0,-76.0,-577.0,-41.0,159.0,-788.0,-178.0,6
2006,46.0,-198.0,-78.0,-45.0,-582.0,-23.0,184.0,-764.0,-181.0,6
2007,53.0,-186.0,-76.0,-35.0,-580.0,-6.0,208.0,-735.0,-183.0,6
2008,53.0,-183.0,-75.0,-46.0,-571.0,7.0,215.0,-703.0,-188.0,6
2009,61.0,-176.0,-84.0,-84.0,-553.0,20.0,234.0,-674.0,-193.0,6
2010,61.0,-168.0,-86.0,-127.0,-529.0,31.0,240.0,-635.0,-201.0,6
2011,64.0,-156.0,-86.0,-178.0,-501.0,39.0,245.0,-610.0,-209.0,6
2012,63.0,-146.0,-85.0,-235.0,-472.0,41.0,242.0,-579.0,-212.0,6
2013,61.0,-147.0,-85.0,-294.0,-449.0,45.0,228.0,-560.0,-198.0,6
2014,49.0,-140.0,-83.0,-347.0,-436.0,51.0,199.0,-533.0,-189.0,6
2015,42.0,-132.0,-77.0,-394.0,-432.0,65.0,167.0,-509.0,-181.0,6
2016,36.0,-128.0,-81.0,-435.0,-431.0,83.0,135.0,-499.0,-184.0,6
2017,29.0,-127.0,-77.0,-475.0,-429.0,104.0,112.0,-493.0,-188.0,6
2018,28.0,-127.0,-84.0,-515.0,-429.0,122.0,104.0,-490.0,-195.0,6
2019,28.0,-128.0,-86.0,-555.0,-431.0,135.0,103.0,-484.0,-198.0,6
2020,26.0,-129.0,-86.0,-594.0,-432.0,138.0,103.0,-493.0,-196.0,6
2021,29.0,-129.0,-87.0,-625.0,-435.0,138.0,111.0,-505.0,-201.0,6
2022,32.0,-134.0,-87.0,-641.0,-439.0,138.0,114.0,-514.0,-199.0,6
2023,31.0,-143.0,-83.0,-639.0,-444.0,141.0,113.0,-540.0,-191.0,6
2024,31.0,-151.0,-79.0,-609.0,-456.0,144.0,118.0,-568.0,-183.0,6
2025,29.0,-158.0,-77.0,-558.0,-473.0,150.0,114.0,-602.0,-172.0,6
2026,30.0,-170.0,-73.0,-492.0,-497.0,153.0,121.0,-631.0,-170.0,6
2027,27.0,-174.0,-74.0,-413.0,-519.0,156.0,111.0,-663.0,-152.0,6
2028,23.0,-182.0,-71.0,-326.0,-542.0,159.0,84.0,-684.0,-146.0,6
2029,13.0,-184.0,-70.0,-233.0,-567.0,165.0,66.0,-701.0,-133.0,6
2030,2.0,-187.0,-72.0,-143.0,-592.0,172.0,34.0,-701.0,-126.0,6
2031,-2.0,-185.0,-58.0,-54.0,-616.0,181.0,-1.0,-706.0,-113.0,6
2032,-4.0,-185.0,-64.0,25.0,-630.0,192.0,-11.0,-697.0,-119.0,6
2033,-3.0,-181.0,-67.0,100.0,-628.0,204.0,-15.0,-680.0,-126.0,6
2034,1.0,-176.0,-67.0,170.0,-600.0,217.0,-7.0,-665.0,-121.0,6
2035,5.0,-172.0,-61.0,234.0,-552.0,238.0,6.0,-641.0,-115.0,6
2036,12.0,-167.0,-62.0,294.0,-491.0,270.0,35.0,-632.0,-114.0,6
2037,19.0,-166.0,-64.0,329.0,-429.0,312.0,72.0,-638.0,-125.0,6
2038,25.0,-169.0,-66.0,335.0,-372.0,353.0,97.0,-654.0,-135.0,6
2039,24.0,-169.0,-72.0,300.0,-329.0,396.0,101.0,-663.0,-148.0,6
2040,21.0,-175.0,-64.0,233.0,-300.0,436.0,94.0,-671.0,-150.0,6
2041,17.0,-175.0,-78.0,146.0,-287.0,481.0,76.0,-674.0,-171.0,6
2042,11.0,-175.0,-80.0,48.0,-286.0,524.0,50.0,-684.0,-192.0,6
2043,2.0,-173.0,-88.0,-68.0,-291.0,557.0,22.0,-688.0,-215.0,6
2044,-1.0,-177.0,-96.0,-201.0,-304.0,581.0,1.0,-686.0,-236.0,6
2045,-3.0,-176.0,-105.0,-347.0,-314.0,592.0,-9.0,-689.0,-274.0,6
2046,-2.0,-175.0,-114.0,-495.0,-319.0,585.0,-10.0,-693.0,-297.0,6
2047,3.0,-180.0,-109.0,-636.0,-299.0,557.0,-7.0,-698.0,-309.0,6
2048,8.0,-184.0,-111.0,-753.0,-248.0,521.0,24.0,-712.0,-312.0,6
2049,19.0,-195.0,-100.0,-835.0,-167.0,483.0,60.0,-742.0,-276.0,6
2050,30.0,-210.0,-89.0,-865.0,-72.0,451.0,97.0,-788.0,-218.0,6
2051,45.0,-241.0,-53.0,-834.0,15.0,424.0,146.0,-855.0,-141.0,6
2052,49.0,-250.0,-45.0,-737.0,76.0,407.0,186.0,-924.0,-73.0,6
2053,57.0,-264.0,-42.0,-584.0,111.0,403.0,214.0,-989.0,-34.0,6
2054,58.0,-273.0,-49.0,-397.0,122.0,405.0,226.0,-1034.0,-49.0,6
2055,54.0,-274.0,-63.0,-212.0,124.0,417.0,217.0,-1045.0,-99.0,6
2056,50.0,-267.0,-86.0,-63.0,125.0,429.0,202.0,-1031.0,-181.0,6
2057,42.0,-253.0,-107.0,25.0,125.0,444.0,175.0,-992.0,-267.0,6
2058,38.0,-241.0,-123.0,36.0,123.0,459.0,149.0,-946.0,-345.0,6
2059,31.0,-227.0,-135.0,-18.0,119.0,470.0,126.0,-906.0,-398.0,6
2060,28.0,-225.0,-134.0,-116.0,117.0,476.0,109.0,-873.0,-419.0,6
2061,27.0,-222.0,-130.0,-218.0,120.0,473.0,100.0,-861.0,-397.0,6
2062,34.0,-234.0,-103.0,-293.0,132.0,456.0,114.0,-872.0,-346.0,6
2063,29.0,-236.0,-103.0,-313.0,145.0,429.0,106.0,-918.0,-282.0,6
2064,28.0,-251.0,-88.0,-284.0,149.0,390.0,111.0,-948.0,-208.0,6
2065,21.0,-257.0,-69.0,-213.0,143.0,340.0,101.0,-989.0,-144.0,6
2066,22.0,-266.0,-55.0,-112.0,128.0,292.0,95.0,-1004.0,-90.0,6
2067,22.0,-265.0,-47.0,5.0,108.0,245.0,90.0,-1003.0,-48.0,6
2068,21.0,-258.0,-36.0,123.0,82.0,203.0,81.0,-992.0,-12.0,6
2069,22.0,-251.0,-28.0,236.0,56.0,175.0,90.0,-965.0,27.0,6
2070,23.0,-245.0,-24.0,338.0,31.0,156.0,97.0,-929.0,45.0,6
2071,19.0,-231.0,-18.0,424.0,13.0,146.0,76.0,-896.0,58.0,6
2072,21.0,-216.0,-24.0,487.0,0.0,148.0,40.0,-852.0,69.0,6
2073,12.0,-217.0,-21.0,522.0,-11.0,163.0,41.0,-835.0,68.0,6
2074,13.0,-219.0,-26.0,532.0,-9.0,182.0,47.0,-835.0,35.0,6
2075,13.0,-218.0,-44.0,505.0,19.0,197.0,44.0,-849.0,-20.0,6
2076,15.0,-223.0,-62.0,445.0,69.0,211.0,49.0,-866.0,-93.0,6
2077,13.0,-231.0,-80.0,351.0,130.0,208.0,38.0,-904.0,-178.0,6
2078,2.0,-241.0,-90.0,226.0,171.0,193.0,13.0,-945.0,-216.0,6
2079,-6.0,-251.0,-96.0,91.0,166.0,180.0,-6.0,-987.0,-237.0,6
2080,-7.0,-273.0,-108.0,-33.0,110.0,178.0,-17.0,-1046.0,-279.0,6
2081,-12.0,-285.0,-127.0,-122.0,38.0,181.0,-29.0,-1104.0,-357.0,6
2082,-16.0,-304.0,-152.0,-179.0,-13.0,179.0,-56.0,-1160.0,-460.0,6
2083,-25.0,-314.0,-173.0,-218.0,-19.0,169.0,-96.0,-1204.0,-558.0,6
2084,-35.0,-328.0,-178.0,-242.0,8.0,155.0,-139.0,-1260.0,-583.0,6
2085,-43.0,-345.0,-177.0,-229.0,41.0,140.0,-165.0,-1309.0,-585.0,6
2086,-42.0,-363.0,-178.0,-174.0,53.0,124.0,-171.0,-1370.0,-572.0,6
2087,-35.0,-376.0,-183.0,-99.0,42.0,102.0,-145.0,-1429.0,-600.0,6
2088,-23.0,-382.0,-197.0,-36.0,22.0,67.0,-113.0,-1472.0,-650.0,6
2089,-12.0,-383.0,-200.0,-9.0,8.0,17.0,-70.0,-1486.0,-678.0,6
2090,-7.0,-383.0,-199.0,-16.0,2.0,-41.0,-34.0,-1475.0,-665.0,6
2091,3.0,-377.0,-184.0,-37.0,4.0,-96.0,6.0,-1462.0,-626.0,6
2092,11.0,-375.0,-164.0,-49.0,12.0,-146.0,34.0,-1442.0,-556.0,6
2093,9.0,-369.0,-140.0,-40.0,14.0,-180.0,30.0,-1422.0,-438.0,6
2094,2.0,-368.0,-118.0,3.0,-2.0,-197.0,12.0,-1402.0,-347.0,6
2095,-3.0,-366.0,-112.0,78.0,-32.0,-194.0,-5.0,-1402.0,-309.0,6
2096,-9.0,-362.0,-113.0,168.0,-41.0,-179.0,-42.0,-1387.0,-320.0,6
2097,-18.0,-355.0,-129.0,241.0,-10.0,-156.0,-88.0,-1373.0,-377.0,6
2098,-31.0,-343.0,-141.0,263.0,72.0,-123.0,-137.0,-1351.0,-440.0,6
2099,-41.0,-336.0,-157.0,217.0,184.0,-84.0,-174.0,-1324.0,-480.0,6
2100,-50.0,-331.0,-151.0,119.0,296.0,-43.0,-199.0,-1301.0,-470.0,6
2101,-51.0,-332.0,-137.0,4.0,382.0,-8.0,-205.0,-1295.0,-433.0,6
2102,-52.0,-333.0,-117.0,-94.0,429.0,15.0,-203.0,-1299.0,-359.0,6
2103,-51.0,-342.0,-100.0,-144.0,445.0,22.0,-198.0,-1321.0,-264.0,6
2104,-54.0,-352.0,-77.0,-137.0,436.0,26.0,-203.0,-1344.0,-184.0,6
2105,-57.0,-363.0,-61.0,-88.0,417.0,26.0,-207.0,-1389.0,-132.0,6
2106,-60.0,-366.0,-61.0,-19.0,398.0,25.0,-217.0,-1414.0,-125.0,6
2107,-58.0,-369.0,-71.0,34.0,388.0,27.0,-217.0,-1425.0,-153.0,6
2108,-57.0,-368.0,-79.0,54.0,390.0,33.0,-218.0,-1424.0,-183.0,6
2109,-56.0,-365.0,-89.0,40.0,401.0,43.0,-208.0,-1416.0,-218.0,6
2110,-54.0,-360.0,-96.0,4.0,405.0,57.0,-213.0,-1402.0,-247.0,6
2111,-51.0,-358.0,-97.0,-44.0,396.0,75.0,-194.0,-1389.0,-274.0,6
2112,-50.0,-352.0,-102.0,-92.0,366.0,91.0,-187.0,-1378.0,-297.0,6
2113,-52.0,-344.0,-108.0,-129.0,321.0,103.0,-182.0,-1351.0,-300.0,6
2114,-50.0,-342.0,-115.0,-154.0,270.0,107.0,-187.0,-1324.0,-307.0,6
2115,-48.0,-330.0,-112.0,-163.0,225.0,112.0,-183.0,-1295.0,-312.0,6
2116,-40.0,-332.0,-116.0,-162.0,199.0,120.0,-169.0,-1265.0,-321.0,6
2117,-36.0,-318.0,-117.0,-160.0,198.0,133.0,-165.0,-1225.0,-319.0,6
2118,-38.0,-305.0,-116.0,-166.0,217.0,143.0,-148.0,-1188.0,-321.0,6
2119,-34.0,-298.0,-110.0,-175.0,248.0,158.0,-139.0,-1151.0,-318.0,6
2120,-28.0,-288.0,-112.0,-189.0,285.0,171.0,-127.0,-1114.0,-301.0,6
2121,-26.0,-280.0,-104.0,-197.0,324.0,179.0,-107.0,-1082.0,-290.0,6
2122,-22.0,-275.0,-102.0,-201.0,361.0,181.0,-96.0,-1054.0,-276.0,6
2123,-23.0,-266.0,-95.0,-200.0,392.0,179.0,-93.0,-1012.0,-260.0,6
2124,-18.0,-255.0,-93.0,-187.0,418.0,172.0,-91.0,-984.0,-241.0,6
2125,-22.0,-248.0,-92.0,-164.0,436.0,163.0,-85.0,-951.0,-223.0,6
2126,-22.0,-242.0,-88.0,-129.0,444.0,150.0,-95.0,-918.0,-224.0,6
2127,-26.0,-231.0,-88.0,-93.0,446.0,138.0,-95.0,-882.0,-222.0,6
2128,-21.0,-220.0,-89.0,-61.0,445.0,125.0,-92.0,-846.0,-223.0,6
2129,-17.0,-211.0,-90.0,-39.0,448.0,108.0,-81.0,-807.0,-228.0,6
2130,-16.0,-201.0,-96.0,-22.0,459.0,92.0,-70.0,-772.0,-232.0,6
2131,-15.0,-191.0,-92.0,-11.0,476.0,76.0,-62.0,-736.0,-235.0,6
2132,-14.0,-182.0,-95.0,-4.0,499.0,61.0,-43.0,-705.0,-235.0,6
2133,-11.0,-174.0,-90.0,-4.0,518.0,51.0,-36.0,-670.0,-230.0,6
2134,-8.0,-168.0,-93.0,-16.0,537.0,42.0,-30.0,-642.0,-235.0,6
2135,-7.0,-162.0,-95.0,-38.0,552.0,41.0,-21.0,-625.0,-234.0,6
2136,-5.0,-161.0,-93.0,-65.0,561.0,40.0,-15.0,-613.0,-242.0,6
2137,-1.0,-160.0,-97.0,-92.0,565.0,38.0,-10.0,-604.0,-246.0,6
2138,1.0,-162.0,-104.0,-122.0,568.0,36.0,-12.0,-611.0,-253.0,6
2139,-3.0,-160.0,-102.0,-153.0,572.0,33.0,-12.0,-616.0,-267.0,6
2140,-7.0,-164.0,-108.0,-185.0,577.0,26.0,-23.0,-620.0,-286.0,6
2141,-9.0,-163.0,-108.0,-215.0,582.0,23.0,-14.0,-627.0,-291.0,6
2142,-10.0,-165.0,-111.0,-234.0,588.0,18.0,-27.0,-631.0,-292.0,6
2143,-8.0,-167.0,-105.0,-246.0,595.0,12.0,-31.0,-633.0,-280.0,6
2144,-8.0,-167.0,-101.0,-243.0,600.0,5.0,-36.0,-634.0,-270.0,6
2145,-8.0,-166.0,-99.0,-231.0,598.0,-2.0,-33.0,-638.0,-264.0,6
2146,-10.0,-170.0,-97.0,-215.0,592.0,-12.0,-33.0,-634.0,-253.0,6
2147,-13.0,-167.0,-97.0,-195.0,582.0,-28.0,-39.0,-633.0,-250.0,6
2148,-13.0,-162.0,-93.0,-179.0,571.0,-43.0,-46.0,-626.0,-250.0,6
2149,-12.0,-162.0,-95.0,-155.0,560.0,-59.0,-49.0,-614.0,-238.0,6
2150,-17.0,-161.0,-99.0,-125.0,551.0,-77.0,-54.0,-609.0,-244.0,6
2151,-15.0,-160.0,-95.0,-93.0,547.0,-97.0,-61.0,-605.0,-247.0,6
2152,-16.0,-156.0,-99.0,-60.0,547.0,-115.0,-70.0,-598.0,-245.0,6
2153,-17.0,-156.0,-100.0,-28.0,555.0,-131.0,-75.0,-593.0,-255.0,6
2154,-17.0,-152.0,-102.0,1.0,575.0,-142.0,-82.0,-588.0,-262.0,6
2155,-21.0,-155.0,-104.0,27.0,609.0,-148.0,-86.0,-580.0,-274.0,6
2156,-19.0,-153.0,-103.0,47.0,655.0,-145.0,-90.0,-576.0,-287.0,6
2157,-16.0,-151.0,-105.0,62.0,711.0,-136.0,-88.0,-576.0,-292.0,6
2158,-16.0,-151.0,-112.0,76.0,772.0,-123.0,-77.0,-571.0,-298.0,6
2159,-14.0,-149.0,-111.0,89.0,833.0,-107.0,-58.0,-568.0,-302.0,6
2160,-12.0,-148.0,-110.0,102.0,893.0,-91.0,-36.0,-563.0,-306.0,6
2161,-1.0,-148.0,-110.0,116.0,942.0,-77.0,-13.0,-559.0,-295.0,6
2162,3.0,-145.0,-99.0,131.0,983.0,-66.0,18.0,-553.0,-274.0,6
2163,8.0,-145.0,-97.0,152.0,1013.0,-63.0,31.0,-553.0,-241.0,6
2164,7.0,-144.0,-84.0,177.0,1028.0,-65.0,35.0,-552.0,-200.0,6
2165,8.0,-150.0,-67.0,217.0,1027.0,-68.0,44.0,-559.0,-153.0,6
2166,12.0,-153.0,-58.0,267.0,1006.0,-74.0,51.0,-572.0,-107.0,6
2167,12.0,-153.0,-58.0,322.0,980.0,-89.0,54.0,-573.0,-79.0,6
2168,9.0,-153.0,-51.0,368.0,950.0,-113.0,52.0,-578.0,-69.0,6
2169,9.0,-151.0,-55.0,394.0,928.0,-143.0,27.0,-578.0,-69.0,6
2170,3.0,-148.0,-54.0,394.0,922.0,-172.0,8.0,-569.0,-96.0,6
2171,-3.0,-144.0,-68.0,356.0,936.0,-190.0,-10.0,-560.0,-130.0,6
2172,-11.0,-140.0,-79.0,289.0,960.0,-201.0,-31.0,-555.0,-178.0,6
2173,-12.0,-138.0,-89.0,197.0,989.0,-198.0,-44.0,-548.0,-214.0,6
2174,-15.0,-137.0,-100.0,94.0,1011.0,-185.0,-41.0,-552.0,-256.0,6
2175,-7.0,-139.0,-105.0,-16.0,1020.0,-168.0,-27.0,-545.0,-286.0,6
2176,-8.0,-139.0,-111.0,-121.0,1008.0,-145.0,-25.0,-551.0,-299.0,6
2177,-9.0,-145.0,-104.0,-216.0,969.0,-126.0,-26.0,-569.0,-279.0,6
2178,-9.0,-156.0,-95.0,-278.0,911.0,-107.0,-34.0,-598.0,-251.0,6
2179,-16.0,-173.0,-84.0,-303.0,838.0,-94.0,-45.0,-641.0,-199.0,6
2180,-16.0,-193.0,-65.0,-283.0,766.0,-90.0,-73.0,-715.0,-132.0,6
2181,-21.0,-210.0,-54.0,-214.0,699.0,-94.0,-81.0,-794.0,-57.0,6
2182,-31.0,-233.0,-28.0,-96.0,639.0,-106.0,-103.0,-876.0,18.0,6
2183,-34.0,-252.0,-12.0,53.0,589.0,-120.0,-126.0,-947.0,64.0,6
2184,-44.0,-264.0,-6.0,209.0,539.0,-135.0,-162.0,-1005.0,96.0,6
2185,-54.0,-280.0,-7.0,363.0,488.0,-151.0,-185.0,-1061.0,109.0,6
2186,-59.0,-290.0,-12.0,497.0,437.0,-168.0,-222.0,-1104.0,79.0,6
2187,-67.0,-295.0,-26.0,608.0,392.0,-190.0,-248.0,-1125.0,37.0,6
2188,-69.0,-296.0,-44.0,684.0,364.0,-219.0,-266.0,-1145.0,-27.0,6
2189,-70.0,-291.0,-63.0,718.0,351.0,-253.0,-274.0,-1132.0,-102.0,6
2190,-78.0,-283.0,-74.0,709.0,340.0,-283.0,-283.0,-1106.0,-168.0,6
2191,-74.0,-275.0,-88.0,665.0,325.0,-303.0,-272.0,-1081.0,-216.0,6
2192,-71.0,-268.0,-100.0,599.0,298.0,-311.0,-273.0,-1043.0,-252.0,6
2193,-70.0,-259.0,-104.0,538.0,269.0,-307.0,-267.0,-1006.0,-278.0,6
2194,-64.0,-252.0,-106.0,483.0,248.0,-287.0,-254.0,-978.0,-289.0,6
2195,-62.0,-246.0,-103.0,438.0,237.0,-253.0,-229.0,-960.0,-275.0,6
2196,-53.0,-243.0,-96.0,394.0,241.0,-215.0,-201.0,-936.0,-249.0,6
2197,-41.0,-238.0,-87.0,346.0,258.0,-174.0,-158.0,-927.0,-214.0,6
2198,-25.0,-239.0,-80.0,287.0,283.0,-133.0,-107.0,-926.0,-173.0,6
2199,-11.0,-238.0,-71.0,225.0,316.0,-93.0,-40.0,-928.0,-136.0,6
2200,10.0,-243.0,-58.0,162.0,357.0,-51.0,26.0,-938.0,-102.0,6
2201,18.0,-248.0,-51.0,99.0,403.0,-10.0,72.0,-968.0,-66.0,6
2202,20.0,-259.0,-45.0,46.0,451.0,26.0,78.0,-1010.0,-33.0,6
2203,6.0,-275.0,-44.0,9.0,494.0,59.0,23.0,-1056.0,-21.0,6
2204,-13.0,-285.0,-51.0,-11.0,505.0,102.0,-41.0,-1106.0,-59.0,6
2205,-22.0,-291.0,-71.0,-24.0,466.0,145.0,-74.0,-1133.0,-158.0,6
2206,-16.0,-293.0,-118.0,-54.0,388.0,170.0,-60.0,-1140.0,-331.0,6
2207,-7.0,-294.0,-154.0,-117.0,334.0,157.0,-33.0,-1152.0,-474.0,6
2208,-5.0,-298.0,-162.0,-179.0,382.0,99.0,-34.0,-1159.0,-527.0,6
2209,-12.0,-311.0,-151.0,-197.0,523.0,20.0,-59.0,-1176.0,-478.0,6
2210,-15.0,-318.0,-130.0,-141.0,656.0,-35.0,-60.0,-1209.0,-388.0,6
2211,-15.0,-321.0,-120.0,-21.0,679.0,-59.0,-36.0,-1224.0,-362.0,6
2212,-14.0,-319.0,-129.0,104.0,551.0,-73.0,-10.0,-1225.0,-394.0,6
2213,-13.0,-309.0,-145.0,177.0,318.0,-83.0,-10.0,-1198.0,-447.0,6
2214,-15.0,-300.0,-157.0,183.0,57.0,-86.0,-32.0,-1164.0,-492.0,6
2215,-24.0,-293.0,-164.0,144.0,-156.0,-67.0,-82.0,-1135.0,-531.0,6
2216,-37.0,-290.0,-161.0,86.0,-291.0,-20.0,-149.0,-1124.0,-521.0,6
2217,-42.0,-294.0,-150.0,24.0,-364.0,48.0,-161.0,-1136.0,-478.0,6
2218,-34.0,-304.0,-132.0,-28.0,-413.0,118.0,-132.0,-1190.0,-405.0,6
2219,-16.0,-324.0,-110.0,-49.0,-460.0,167.0,-47.0,-1260.0,-319.0,6
2220,-7.0,-347.0,-94.0,-22.0,-492.0,189.0,-18.0,-1343.0,-238.0,6
2221,-8.0,-368.0,-75.0,43.0,-506.0,195.0,-18.0,-1428.0,-184.0,6
2222,-13.0,-390.0,-78.0,121.0,-520.0,208.0,-44.0,-1506.0,-183.0,6
2223,-16.0,-402.0,-93.0,182.0,-557.0,235.0,-66.0,-1578.0,-235.0,6
2224,-21.0,-411.0,-108.0,189.0,-607.0,263.0,-81.0,-1625.0,-310.0,6
2225,-16.0,-426.0,-122.0,142.0,-629.0,272.0,-75.0,-1654.0,-354.0,6
2226,-14.0,-431.0,-119.0,74.0,-595.0,261.0,-49.0,-1685.0,-343.0,6
2227,2.0,-441.0,-104.0,28.0,-504.0,234.0,-5.0,-1704.0,-275.0,6
2228,19.0,-451.0,-74.0,42.0,-400.0,197.0,52.0,-1734.0,-172.0,6
2229,32.0,-454.0,-58.0,121.0,-316.0,154.0,122.0,-1752.0,-101.0,6
2230,47.0,-459.0,-55.0,234.0,-270.0,105.0,182.0,-1759.0,-90.0,6
2231,60.0,-450.0,-64.0,335.0,-248.0,55.0,224.0,-1754.0,-123.0,6
2232,63.0,-440.0,-72.0,381.0,-233.0,10.0,236.0,-1704.0,-161.0,6
2233,52.0,-417.0,-78.0,372.0,-220.0,-20.0,222.0,-1637.0,-182.0,6
2234,46.0,-401.0,-79.0,326.0,-216.0,-20.0,185.0,-1575.0,-188.0,6
2235,36.0,-387.0,-79.0,261.0,-223.0,10.0,152.0,-1517.0,-183.0,6
2236,32.0,-379.0,-77.0,189.0,-234.0,52.0,127.0,-1486.0,-182.0,6
2237,35.0,-377.0,-74.0,107.0,-233.0,84.0,123.0,-1467.0,-178.0,6
2238,31.0,-373.0,-70.0,25.0,-215.0,100.0,124.0,-1453.0,-154.0,6
2239,29.0,-371.0,-70.0,-42.0,-182.0,97.0,114.0,-1446.0,-135.0,6
2240,29.0,-369.0,-63.0,-86.0,-142.0,75.0,98.0,-1421.0,-129.0,6
2241,19.0,-356.0,-67.0,-112.0,-118.0,40.0,94.0,-1399.0,-131.0,6
2242,14.0,-352.0,-70.0,-127.0,-122.0,-3.0,73.0,-1369.0,-144.0,6
2243,11.0,-341.0,-77.0,-139.0,-161.0,-52.0,49.0,-1322.0,-178.0,6
2244,-2.0,-327.0,-86.0,-153.0,-230.0,-100.0,12.0,-1269.0,-199.0,6
2245,-12.0,-312.0,-92.0,-167.0,-300.0,-136.0,-24.0,-1206.0,-231.0,6
2246,-25.0,-296.0,-100.0,-175.0,-356.0,-163.0,-67.0,-1151.0,-248.0,6
2247,-28.0,-284.0,-98.0,-177.0,-389.0,-179.0,-107.0,-1100.0,-253.0,6
2248,-32.0,-272.0,-93.0,-161.0,-412.0,-190.0,-126.0,-1045.0,-237.0,6
2249,-38.0,-253.0,-88.0,-132.0,-437.0,-199.0,-142.0,-970.0,-219.0,6
2250,-34.0,-243.0,-86.0,-91.0,-474.0,-206.0,-138.0,-917.0,-208.0,6
2251,-33.0,-226.0,-83.0,-45.0,-517.0,-210.0,-131.0,-863.0,-207.0,6
2252,-31.0,-212.0,-84.0,-3.0,-557.0,-212.0,-111.0,-808.0,-213.0,6
2253,-24.0,-200.0,-86.0,23.0,-588.0,-213.0,-86.0,-771.0,-207.0,6
2254,-16.0,-187.0,-87.0,24.0,-608.0,-208.0,-61.0,-725.0,-204.0,6
2255,-13.0,-179.0,-81.0,9.0,-625.0,-206.0,-35.0,-688.0,-187.0,6
2256,0.0,-170.0,-79.0,-12.0,-641.0,-199.0,-8.0,-650.0,-188.0,6
2257,4.0,-162.0,-84.0,-32.0,-646.0,-190.0,21.0,-627.0,-193.0,6
2258,13.0,-157.0,-83.0,-59.0,-636.0,-180.0,53.0,-612.0,-198.0,6
2259,18.0,-153.0,-84.0,-92.0,-617.0,-171.0,81.0,-593.0,-198.0,6
2260,29.0,-151.0,-83.0,-127.0,-598.0,-165.0,107.0,-581.0,-199.0,6
2261,32.0,-149.0,-88.0,-160.0,-581.0,-166.0,126.0,-574.0,-208.0,6
2262,37.0,-145.0,-92.0,-191.0,-564.0,-166.0,148.0,-566.0,-217.0,6
2263,41.0,-147.0,-93.0,-224.0,-545.0,-168.0,160.0,-569.0,-237.0,6
2264,45.0,-148.0,-94.0,-260.0,-523.0,-168.0,166.0,-573.0,-248.0,6
2265,46.0,-149.0,-98.0,-306.0,-498.0,-166.0,171.0,-579.0,-257.0,6
2266,47.0,-151.0,-101.0,-359.0,-475.0,-168.0,166.0,-584.0,-268.0,6
2267,37.0,-150.0,-88.0,-408.0,-455.0,-171.0,162.0,-589.0,-255.0,6
2268,42.0,-154.0,-95.0,-448.0,-446.0,-173.0,154.0,-593.0,-248.0,6
2269,41.0,-159.0,-94.0,-470.0,-442.0,-172.0,150.0,-612.0,-235.0,6
2270,38.0,-168.0,-86.0,-477.0,-445.0,-169.0,143.0,-631.0,-225.0,6
2271,33.0,-173.0,-92.0,-475.0,-454.0,-161.0,130.0,-658.0,-218.0,6
2272,31.0,-181.0,-86.0,-476.0,-467.0,-148.0,118.0,-692.0,-223.0,6
2273,26.0,-184.0,-87.0,-481.0,-486.0,-130.0,107.0,-704.0,-213.0,6
2274,25.0,-186.0,-85.0,-483.0,-513.0,-115.0,98.0,-715.0,-211.0,6
2275,20.0,-186.0,-93.0,-479.0,-543.0,-100.0,91.0,-730.0,-216.0,6
2276,21.0,-192.0,-93.0,-470.0,-567.0,-87.0,79.0,-746.0,-227.0,6
2277,17.0,-194.0,-91.0,-457.0,-590.0,-71.0,72.0,-757.0,-229.0,6
2278,11.0,-200.0,-92.0,-439.0,-608.0,-51.0,58.0,-755.0,-234.0,6
2279,13.0,-202.0,-89.0,-418.0,-626.0,-33.0,51.0,-765.0,-219.0,6
2280,7.0,-203.0,-88.0,-390.0,-647.0,-13.0,38.0,-764.0,-210.0,6
2281,4.0,-201.0,-84.0,-354.0,-667.0,6.0,23.0,-774.0,-207.0,6
2282,1.0,-201.0,-81.0,-317.0,-690.0,24.0,9.0,-775.0,-195.0,6
2283,0.0,-201.0,-85.0,-281.0,-708.0,43.0,-6.0,-768.0,-193.0,6
2284,-6.0,-197.0,-82.0,-250.0,-726.0,67.0,-6.0,-770.0,-191.0,6
2285,-3.0,-197.0,-83.0,-226.0,-741.0,91.0,-13.0,-762.0,-196.0,6
2286,-3.0,-197.0,-87.0,-211.0,-750.0,119.0,-16.0,-749.0,-200.0,6
2287,-10.0,-194.0,-79.0,-201.0,-753.0,145.0,-19.0,-742.0,-197.0,6
2288,-2.0,-190.0,-80.0,-194.0,-755.0,169.0,-14.0,-736.0,-197.0,6
2289,-4.0,-190.0,-75.0,-180.0,-755.0,189.0,-17.0,-723.0,-182.0,6
2290,-3.0,-188.0,-79.0,-155.0,-761.0,200.0,-5.0,-721.0,-170.0,6
2291,6.0,-191.0,-75.0,-114.0,-769.0,204.0,28.0,-720.0,-171.0,6
2292,13.0,-189.0,-75.0,-63.0,-771.0,193.0,58.0,-733.0,-163.0,6
2293,25.0,-193.0,-77.0,-8.0,-756.0,173.0,79.0,-733.0,-168.0,6
2294,32.0,-192.0,-75.0,47.0,-719.0,152.0,107.0,-731.0,-167.0,6
2295,32.0,-188.0,-72.0,100.0,-662.0,139.0,111.0,-733.0,-153.0,6
2296,31.0,-189.0,-68.0,143.0,-602.0,143.0,105.0,-730.0,-137.0,6
2297,20.0,-186.0,-66.0,170.0,-560.0,155.0,92.0,-715.0,-122.0,6
2298,15.0,-183.0,-63.0,178.0,-554.0,171.0,61.0,-705.0,-116.0,6
2299,8.0,-179.0,-62.0,166.0,-575.0,188.0,33.0,-690.0,-110.0,6
2300,0.0,-173.0,-66.0,140.0,-605.0,208.0,-1.0,-666.0,-116.0,6
2301,-9.0,-173.0,-64.0,107.0,-628.0,230.0,-31.0,-655.0,-114.0,6
2302,-14.0,-170.0,-63.0,69.0,-635.0,254.0,-51.0,-647.0,-110.0,6
2303,-16.0,-173.0,-61.0,34.0,-627.0,280.0,-72.0,-652.0,-99.0,6
2304,-15.0,-168.0,-62.0,-2.0,-611.0,298.0,-62.0,-655.0,-113.0,6
2305,-12.0,-169.0,-64.0,-42.0,-592.0,305.0,-47.0,-658.0,-111.0,6
2306,-7.0,-168.0,-67.0,-80.0,-577.0,294.0,-24.0,-655.0,-123.0,6
2307,0.0,-166.0,-68.0,-107.0,-563.0,268.0,0.0,-648.0,-131.0,6
2308,11.0,-169.0,-72.0,-127.0,-547.0,236.0,37.0,-647.0,-144.0,6
2309,29.0,-170.0,-74.0,-152.0,-524.0,201.0,93.0,-654.0,-148.0,6
2310,42.0,-158.0,-82.0,-187.0,-485.0,165.0,138.0,-669.0,-148.0,6
2311,49.0,-175.0,-70.0,-234.0,-434.0,126.0,182.0,-691.0,-140.0,6
2312,58.0,-182.0,-62.0,-285.0,-378.0,86.0,217.0,-699.0,-120.0,6
2313,62.0,-184.0,-60.0,-331.0,-321.0,53.0,245.0,-707.0,-111.0,6
2314,64.0,-185.0,-58.0,-363.0,-264.0,27.0,240.0,-711.0,-98.0,6
2315,59.0,-184.0,-60.0,-378.0,-206.0,10.0,232.0,-710.0,-100.0,6
2316,54.0,-187.0,-63.0,-380.0,-145.0,8.0,204.0,-714.0,-111.0,6
2317,47.0,-189.0,-61.0,-372.0,-76.0,21.0,171.0,-730.0,-115.0,6
2318,36.0,-200.0,-63.0,-357.0,-4.0,43.0,136.0,-763.0,-108.0,6
2319,25.0,-213.0,-57.0,-331.0,66.0,70.0,101.0,-803.0,-91.0,6
2320,18.0,-227.0,-58.0,-299.0,130.0,95.0,70.0,-851.0,-86.0,6
2321,6.0,-229.0,-72.0,-261.0,180.0,120.0,41.0,-908.0,-95.0,6
2322,2.0,-246.0,-64.0,-226.0,205.0,139.0,2.0,-941.0,-116.0,6
2323,-11.0,-252.0,-73.0,-208.0,197.0,152.0,-31.0,-964.0,-151.0,6
2324,-19.0,-250.0,-82.0,-207.0,155.0,157.0,-71.0,-972.0,-191.0,6
2325,-28.0,-251.0,-87.0,-223.0,88.0,155.0,-97.0,-976.0,-211.0,6
2326,-31.0,-256.0,-85.0,-241.0,9.0,146.0,-117.0,-978.0,-206.0,6
2327,-30.0,-254.0,-79.0,-245.0,-69.0,131.0,-118.0,-980.0,-183.0,6
2328,-24.0,-257.0,-65.0,-219.0,-140.0,110.0,-86.0,-991.0,-135.0,6
2329,-16.0,-262.0,-55.0,-162.0,-201.0,86.0,-59.0,-1003.0,-91.0,6
2330,-14.0,-263.0,-39.0,-83.0,-258.0,61.0,-44.0,-1007.0,-26.0,6
2331,-4.0,-268.0,-30.0,9.0,-322.0,38.0,-11.0,-1017.0,25.0,6
2332,13.0,-269.0,-33.0,102.0,-380.0,17.0,21.0,-1043.0,43.0,6
2333,23.0,-281.0,-24.0,193.0,-414.0,-5.0,81.0,-1082.0,44.0,6
2334,32.0,-292.0,-42.0,276.0,-404.0,-27.0,107.0,-1110.0,-6.0,6
2335,34.0,-292.0,-53.0,336.0,-344.0,-45.0,126.0,-1127.0,-72.0,6
2336,27.0,-285.0,-60.0,354.0,-262.0,-52.0,107.0,-1112.0,-107.0,6
2337,29.0,-281.0,-65.0,322.0,-208.0,-45.0,107.0,-1095.0,-132.0,6
2338,34.0,-276.0,-78.0,267.0,-190.0,-26.0,119.0,-1090.0,-168.0,6
2339,39.0,-282.0,-88.0,223.0,-178.0,-12.0,137.0,-1087.0,-203.0,6
2340,38.0,-278.0,-105.0,188.0,-144.0,-13.0,137.0,-1089.0,-267.0,6
2341,40.0,-274.0,-118.0,143.0,-67.0,-28.0,137.0,-1087.0,-352.0,6
2342,37.0,-283.0,-124.0,64.0,40.0,-53.0,125.0,-1080.0,-404.0,6
2343,30.0,-279.0,-143.0,-42.0,153.0,-79.0,104.0,-1086.0,-444.0,6
2344,26.0,-284.0,-163.0,-160.0,258.0,-104.0,90.0,-1103.0,-516.0,6
2345,23.0,-293.0,-183.0,-274.0,356.0,-130.0,67.0,-1129.0,-593.0,6
2346,20.0,-304.0,-202.0,-373.0,451.0,-160.0,61.0,-1156.0,-673.0,6
2347,9.0,-311.0,-214.0,-442.0,535.0,-196.0,29.0,-1188.0,-727.0,6
2348,-1.0,-314.0,-217.0,-477.0,594.0,-230.0,0.0,-1210.0,-737.0,6
2349,-5.0,-323.0,-206.0,-471.0,618.0,-252.0,-23.0,-1232.0,-699.0,6
2350,-12.0,-329.0,-186.0,-419.0,612.0,-252.0,-35.0,-1259.0,-631.0,6
2351,-14.0,-333.0,-170.0,-329.0,587.0,-232.0,-38.0,-1276.0,-551.0,6
2352,-10.0,-334.0,-144.0,-218.0,551.0,-194.0,-32.0,-1286.0,-462.0,6
2353,-9.0,-330.0,-113.0,-97.0,511.0,-149.0,-24.0,-1280.0,-359.0,6
2354,-10.0,-329.0,-97.0,16.0,456.0,-112.0,-14.0,-1268.0,-267.0,6
2355,-14.0,-327.0,-84.0,117.0,373.0,-86.0,-36.0,-1260.0,-212.0,6
2356,-16.0,-328.0,-89.0,191.0,258.0,-57.0,-55.0,-1272.0,-212.0,6
2357,-17.0,-337.0,-101.0,226.0,197.0,-25.0,-74.0,-1307.0,-255.0,6
2358,-16.0,-342.0,-111.0,230.0,199.0,10.0,-70.0,-1337.0,-305.0,6
2359,-13.0,-355.0,-126.0,201.0,247.0,46.0,-53.0,-1380.0,-364.0,6
2360,-12.0,-364.0,-136.0,141.0,299.0,82.0,-32.0,-1424.0,-405.0,6
2361,-7.0,-377.0,-139.0,44.0,320.0,119.0,-27.0,-1469.0,-431.0,6
2362,-8.0,-389.0,-139.0,-67.0,301.0,152.0,-25.0,-1501.0,-444.0,6
2363,-9.0,-398.0,-132.0,-160.0,261.0,181.0,-37.0,-1534.0,-420.0,6
2364,-19.0,-408.0,-125.0,-202.0,230.0,201.0,-70.0,-1571.0,-373.0,6
2365,-29.0,-417.0,-112.0,-172.0,225.0,223.0,-111.0,-1588.0,-331.0,6
2366,-39.0,-420.0,-104.0,-75.0,255.0,235.0,-154.0,-1609.0,-295.0,6
2367,-48.0,-421.0,-99.0,68.0,310.0,234.0,-193.0,-1617.0,-266.0,6
2368,-60.0,-414.0,-98.0,253.0,373.0,219.0,-240.0,-1600.0,-256.0,6
2369,-69.0,-402.0,-103.0,379.0,434.0,197.0,-269.0,-1565.0,-269.0,6
2370,-77.0,-386.0,-103.0,466.0,484.0,175.0,-289.0,-1506.0,-274.0,6
2371,-80.0,-366.0,-99.0,511.0,518.0,166.0,-313.0,-1427.0,-269.0,6
2372,-77.0,-347.0,-98.0,535.0,535.0,170.0,-302.0,-1368.0,-256.0,6
2373,-73.0,-330.0,-90.0,542.0,540.0,172.0,-276.0,-1285.0,-227.0,6
2374,-63.0,-316.0,-82.0,548.0,531.0,157.0,-242.0,-1222.0,-189.0,6
2375,-52.0,-305.0,-70.0,547.0,504.0,133.0,-198.0,-1177.0,-165.0,6
2376,-43.0,-299.0,-66.0,545.0,455.0,109.0,-160.0,-1154.0,-141.0,6
2377,-35.0,-289.0,-64.0,526.0,402.0,93.0,-132.0,-1137.0,-131.0,6
2378,-24.0,-287.0,-64.0,489.0,356.0,86.0,-99.0,-1127.0,-136.0,6
2379,-20.0,-286.0,-68.0,431.0,321.0,82.0,-68.0,-1118.0,-139.0,6
2380,-12.0,-285.0,-68.0,363.0,299.0,79.0,-46.0,-1113.0,-145.0,6
2381,-9.0,-284.0,-76.0,295.0,285.0,75.0,-38.0,-1102.0,-153.0,6
2382,-10.0,-279.0,-73.0,232.0,278.0,70.0,-36.0,-1085.0,-168.0,6
2383,-13.0,-273.0,-75.0,182.0,277.0,70.0,-46.0,-1062.0,-172.0,6
2384,-14.0,-267.0,-75.0,138.0,290.0,77.0,-50.0,-1041.0,-170.0,6
2385,-16.0,-261.0,-77.0,99.0,318.0,88.0,-71.0,-1013.0,-170.0,6
2386,-18.0,-250.0,-79.0,59.0,356.0,105.0,-79.0,-988.0,-175.0,6
2387,-19.0,-248.0,-79.0,16.0,402.0,120.0,-90.0,-963.0,-186.0,6
2388,-19.0,-243.0,-88.0,-35.0,450.0,135.0,-86.0,-943.0,-206.0,6
2389,-19.0,-239.0,-91.0,-95.0,494.0,141.0,-96.0,-928.0,-223.0,6
2390,-24.0,-233.0,-95.0,-155.0,534.0,141.0,-96.0,-905.0,-245.0,6
2391,-29.0,-229.0,-100.0,-210.0,570.0,137.0,-102.0,-892.0,-263.0,6
2392,-28.0,-222.0,-100.0,-252.0,598.0,130.0,-113.0,-864.0,-262.0,6
2393,-31.0,-217.0,-99.0,-275.0,621.0,124.0,-120.0,-837.0,-265.0,6
2394,-32.0,-213.0,-98.0,-280.0,632.0,118.0,-129.0,-825.0,-254.0,6
2395,-32.0,-208.0,-98.0,-275.0,634.0,113.0,-129.0,-805.0,-252.0,6
2396,-30.0,-206.0,-93.0,-267.0,625.0,107.0,-124.0,-794.0,-242.0,6
2397,-31.0,-200.0,-91.0,-266.0,609.0,101.0,-121.0,-786.0,-236.0,6
2398,-33.0,-199.0,-93.0,-274.0,585.0,88.0,-114.0,-767.0,-228.0,6
2399,-29.0,-196.0,-86.0,-283.0,558.0,68.0,-117.0,-756.0,-216.0,6
2400,-28.0,-190.0,-95.0,-298.0,527.0,52.0,-115.0,-736.0,-215.0,6
2401,-27.0,-187.0,-87.0,-318.0,494.0,42.0,-106.0,-725.0,-210.0,6
2402,-21.0,-184.0,-91.0,-342.0,462.0,33.0,-90.0,-707.0,-207.0,6
2403,-21.0,-179.0,-86.0,-361.0,427.0,15.0,-83.0,-695.0,-220.0,6
2404,-21.0,-178.0,-88.0,-374.0,399.0,-10.0,-85.0,-683.0,-222.0,6
2405,-20.0,-168.0,-94.0,-385.0,378.0,-36.0,-79.0,-655.0,-222.0,6
2406,-20.0,-166.0,-96.0,-391.0,370.0,-54.0,-82.0,-643.0,-228.0,6
2407,-18.0,-169.0,-91.0,-390.0,372.0,-68.0,-80.0,-639.0,-236.0,6
2408,-22.0,-171.0,-92.0,-379.0,383.0,-80.0,-81.0,-643.0,-238.0,6
2409,-16.0,-170.0,-93.0,-362.0,395.0,-94.0,-80.0,-649.0,-246.0,6
2410,-18.0,-172.0,-96.0,-344.0,408.0,-109.0,-77.0,-659.0,-240.0,6
2411,-21.0,-173.0,-90.0,-323.0,419.0,-123.0,-76.0,-662.0,-228.0,6
2412,-19.0,-175.0,-91.0,-300.0,428.0,-133.0,-79.0,-668.0,-224.0,6
2413,-19.0,-174.0,-90.0,-277.0,435.0,-140.0,-76.0,-675.0,-206.0,6
2414,-16.0,-176.0,-83.0,-255.0,440.0,-147.0,-75.0,-674.0,-185.0,6
2415,-17.0,-180.0,-76.0,-229.0,446.0,-156.0,-75.0,-683.0,-170.0,6
2416,-17.0,-180.0,-73.0,-202.0,452.0,-166.0,-73.0,-691.0,-156.0,6
2417,-16.0,-179.0,-67.0,-174.0,461.0,-177.0,-73.0,-686.0,-140.0,6
2418,-16.0,-180.0,-69.0,-142.0,464.0,-189.0,-73.0,-683.0,-136.0,6
2419,-16.0,-182.0,-70.0,-109.0,465.0,-206.0,-74.0,-685.0,-139.0,6
2420,-19.0,-177.0,-71.0,-77.0,464.0,-226.0,-75.0,-678.0,-152.0,6
2421,-20.0,-176.0,-76.0,-51.0,460.0,-251.0,-82.0,-669.0,-169.0,6
2422,-22.0,-171.0,-75.0,-26.0,455.0,-272.0,-84.0,-660.0,-173.0,6
2423,-24.0,-173.0,-78.0,-1.0,446.0,-290.0,-87.0,-650.0,-178.0,6
2424,-24.0,-168.0,-78.0,32.0,434.0,-308.0,-92.0,-641.0,-181.0,6
2425,-25.0,-168.0,-78.0,71.0,415.0,-326.0,-88.0,-634.0,-185.0,6
2426,-23.0,-162.0,-81.0,109.0,387.0,-343.0,-92.0,-620.0,-185.0,6
2427,-21.0,-159.0,-83.0,147.0,354.0,-361.0,-85.0,-610.0,-200.0,6
2428,-20.0,-155.0,-88.0,175.0,325.0,-374.0,-78.0,-596.0,-208.0,6
2429,-16.0,-152.0,-94.0,187.0,304.0,-383.0,-62.0,-574.0,-218.0,6
2430,-16.0,-147.0,-89.0,178.0,294.0,-389.0,-56.0,-572.0,-222.0,6
2431,-14.0,-147.0,-89.0,155.0,291.0,-393.0,-46.0,-569.0,-205.0,6
2432,-12.0,-149.0,-82.0,134.0,294.0,-392.0,-38.0,-573.0,-181.0,6
2433,-12.0,-154.0,-66.0,120.0,300.0,-387.0,-36.0,-585.0,-145.0,6
2434,-11.0,-159.0,-57.0,122.0,306.0,-376.0,-32.0,-601.0,-99.0,6
2435,-7.0,-167.0,-48.0,142.0,308.0,-363.0,-17.0,-639.0,-69.0,6
2436,-4.0,-179.0,-52.0,171.0,305.0,-351.0,-12.0,-673.0,-50.0,6
2437,-2.0,-183.0,-50.0,203.0,298.0,-336.0,-9.0,-698.0,-29.0,6
2438,-1.0,-184.0,-41.0,227.0,282.0,-319.0,-1.0,-724.0,-32.0,6
2439,1.0,-188.0,-45.0,234.0,264.0,-305.0,4.0,-740.0,-46.0,6
2440,4.0,-193.0,-51.0,220.0,247.0,-289.0,2.0,-752.0,-63.0,6
2441,-4.0,-192.0,-58.0,180.0,233.0,-273.0,-7.0,-748.0,-76.0,6
2442,-6.0,-187.0,-58.0,121.0,218.0,-253.0,-12.0,-740.0,-85.0,6
2443,-9.0,-184.0,-57.0,48.0,195.0,-225.0,-22.0,-730.0,-89.0,6
2444,-15.0,-179.0,-56.0,-40.0,158.0,-193.0,-48.0,-709.0,-95.0,6
2445,-20.0,-180.0,-58.0,-133.0,113.0,-153.0,-72.0,-694.0,-97.0,6
2446,-25.0,-179.0,-53.0,-229.0,60.0,-105.0,-88.0,-690.0,-89.0,6
2447,-29.0,-182.0,-50.0,-307.0,-2.0,-58.0,-117.0,-694.0,-70.0,6
2448,-35.0,-184.0,-50.0,-346.0,-67.0,-16.0,-131.0,-704.0,-45.0,6
2449,-39.0,-189.0,-47.0,-339.0,-130.0,18.0,-150.0,-732.0,-24.0,6
2450,-46.0,-200.0,-35.0,-297.0,-180.0,47.0,-167.0,-762.0,-9.0,6
2451,-52.0,-210.0,-35.0,-226.0,-221.0,67.0,-181.0,-800.0,13.0,6
2452,-53.0,-222.0,-25.0,-135.0,-249.0,83.0,-199.0,-838.0,36.0,6
2453,-54.0,-234.0,-27.0,-36.0,-272.0,87.0,-206.0,-880.0,40.0,6
2454,-49.0,-238.0,-23.0,54.0,-289.0,78.0,-197.0,-907.0,33.0,6
2455,-48.0,-239.0,-35.0,116.0,-300.0,56.0,-181.0,-924.0,0.0,6
2456,-39.0,-238.0,-43.0,143.0,-312.0,24.0,-149.0,-918.0,-47.0,6
2457,-29.0,-229.0,-59.0,129.0,-328.0,-17.0,-117.0,-900.0,-91.0,6
2458,-20.0,-222.0,-70.0,83.0,-347.0,-57.0,-83.0,-870.0,-133.0,6
2459,-14.0,-211.0,-75.0,28.0,-369.0,-93.0,-58.0,-835.0,-167.0,6
2460,-2.0,-208.0,-85.0,-18.0,-389.0,-117.0,-10.0,-803.0,-191.0,6
2461,13.0,-201.0,-93.0,-43.0,-395.0,-132.0,40.0,-785.0,-226.0,6
2462,34.0,-200.0,-97.0,-44.0,-364.0,-132.0,102.0,-770.0,-259.0,6
2463,32.0,-208.0,-102.0,-16.0,-287.0,-120.0,127.0,-777.0,-268.0,6
2464,20.0,-215.0,-99.0,32.0,-172.0,-93.0,69.0,-802.0,-265.0,6
2465,1.0,-221.0,-113.0,91.0,-60.0,-36.0,-7.0,-835.0,-304.0,6
2466,-5.0,-222.0,-137.0,125.0,21.0,42.0,-24.0,-854.0,-412.0,6
2467,-13.0,-221.0,-165.0,104.0,72.0,116.0,-51.0,-865.0,-535.0,6
2468,-15.0,-225.0,-187.0,4.0,125.0,158.0,-75.0,-895.0,-636.0,6
2469,-7.0,-238.0,-192.0,-146.0,230.0,169.0,-58.0,-941.0,-644.0,6
2470,6.0,-264.0,-181.0,-269.0,387.0,164.0,0.0,-1019.0,-579.0,6
2471,21.0,-293.0,-161.0,-294.0,534.0,156.0,90.0,-1124.0,-501.0,6
2472,38.0,-321.0,-148.0,-228.0,595.0,136.0,167.0,-1223.0,-468.0,6
2473,50.0,-336.0,-149.0,-126.0,528.0,101.0,213.0,-1287.0,-480.0,6
2474,49.0,-342.0,-160.0,-51.0,341.0,48.0,220.0,-1316.0,-516.0,6
2475,37.0,-339.0,-173.0,-38.0,78.0,-8.0,184.0,-1310.0,-579.0,6
2476,25.0,-330.0,-193.0,-94.0,-199.0,-48.0,130.0,-1297.0,-659.0,6
2477,18.0,-332.0,-201.0,-194.0,-433.0,-55.0,84.0,-1295.0,-687.0,6
2478,7.0,-346.0,-189.0,-279.0,-605.0,-30.0,40.0,-1325.0,-641.0,6
2479,-5.0,-364.0,-172.0,-298.0,-723.0,19.0,-11.0,-1386.0,-562.0,6
2480,-11.0,-390.0,-161.0,-244.0,-808.0,81.0,-27.0,-1495.0,-518.0,6
2481,-19.0,-413.0,-166.0,-168.0,-891.0,142.0,-65.0,-1605.0,-532.0,6
2482,-42.0,-433.0,-175.0,-130.0,-980.0,206.0,-144.0,-1680.0,-580.0,6
2483,-65.0,-443.0,-187.0,-171.0,-1059.0,274.0,-250.0,-1734.0,-610.0,6
2484,-75.0,-455.0,-186.0,-269.0,-1096.0,342.0,-299.0,-1771.0,-623.0,6
2485,-63.0,-466.0,-180.0,-373.0,-1061.0,390.0,-261.0,-1807.0,-590.0,6
2486,-31.0,-479.0,-155.0,-421.0,-953.0,389.0,-149.0,-1843.0,-493.0,6
2487,5.0,-487.0,-122.0,-381.0,-810.0,337.0,-4.0,-1862.0,-375.0,6
2488,45.0,-492.0,-102.0,-259.0,-667.0,248.0,132.0,-1873.0,-274.0,6
2489,73.0,-483.0,-79.0,-95.0,-547.0,137.0,269.0,-1869.0,-205.0,6
2490,99.0,-479.0,-72.0,76.0,-458.0,16.0,367.0,-1833.0,-166.0,6
2491,114.0,-459.0,-72.0,224.0,-394.0,-103.0,424.0,-1768.0,-162.0,6
2492,119.0,-434.0,-74.0,332.0,-354.0,-199.0,459.0,-1687.0,-177.0,6
2493,116.0,-407.0,-72.0,386.0,-333.0,-257.0,445.0,-1588.0,-179.0,6
2494,109.0,-383.0,-72.0,396.0,-310.0,-266.0,411.0,-1486.0,-176.0,6
2495,91.0,-358.0,-76.0,376.0,-270.0,-236.0,355.0,-1404.0,-176.0,6
2496,74.0,-338.0,-77.0,336.0,-204.0,-183.0,289.0,-1333.0,-176.0,6
2497,51.0,-321.0,-81.0,277.0,-116.0,-128.0,203.0,-1263.0,-194.0,6
2498,31.0,-310.0,-94.0,190.0,-23.0,-81.0,98.0,-1208.0,-232.0,6
2499,9.0,-300.0,-100.0,64.0,56.0,-49.0,20.0,-1172.0,-288.0,6
2500,-14.0,-293.0,-117.0,-99.0,112.0,-31.0,-60.0,-1153.0,-340.0,6
2501,-30.0,-292.0,-127.0,-283.0,135.0,-22.0,-130.0,-1147.0,-376.0,6
2502,-48.0,-297.0,-129.0,-463.0,135.0,-19.0,-190.0,-1160.0,-394.0,6
2503,-61.0,-306.0,-128.0,-609.0,115.0,-16.0,-224.0,-1191.0,-387.0,6
2504,-69.0,-322.0,-125.0,-695.0,83.0,-14.0,-255.0,-1256.0,-375.0,6
2505,-68.0,-337.0,-122.0,-729.0,41.0,-14.0,-250.0,-1311.0,-368.0,6
2506,-61.0,-357.0,-124.0,-720.0,-10.0,-17.0,-241.0,-1370.0,-368.0,6
2507,-58.0,-368.0,-117.0,-679.0,-72.0,-28.0,-205.0,-1413.0,-353.0,6
2508,-45.0,-372.0,-117.0,-615.0,-153.0,-47.0,-171.0,-1423.0,-335.0,6
2509,-35.0,-366.0,-108.0,-529.0,-248.0,-71.0,-132.0,-1401.0,-317.0,6
2510,-26.0,-354.0,-102.0,-423.0,-342.0,-98.0,-77.0,-1356.0,-300.0,6
2511,-12.0,-339.0,-98.0,-305.0,-425.0,-123.0,-27.0,-1289.0,-268.0,6
2512,5.0,-315.0,-95.0,-184.0,-494.0,-144.0,20.0,-1200.0,-248.0,6
2513,16.0,-292.0,-92.0,-71.0,-549.0,-164.0,75.0,-1112.0,-231.0,6
2514,29.0,-265.0,-93.0,20.0,-588.0,-183.0,111.0,-1023.0,-219.0,6
2515,39.0,-242.0,-90.0,84.0,-610.0,-203.0,143.0,-927.0,-221.0,6
2516,44.0,-218.0,-92.0,118.0,-608.0,-221.0,161.0,-832.0,-227.0,6
2517,44.0,-191.0,-92.0,117.0,-584.0,-232.0,162.0,-750.0,-231.0,6
2518,37.0,-176.0,-104.0,97.0,-545.0,-231.0,163.0,-673.0,-227.0,6
2519,46.0,-157.0,-90.0,64.0,-493.0,-226.0,154.0,-603.0,-222.0,6
2520,40.0,-143.0,-89.0,27.0,-429.0,-216.0,148.0,-559.0,-220.0,6
2521,39.0,-131.0,-92.0,-8.0,-356.0,-201.0,136.0,-509.0,-222.0,6
2522,31.0,-123.0,-89.0,-43.0,-283.0,-186.0,116.0,-480.0,-218.0,6
2523,30.0,-120.0,-88.0,-81.0,-216.0,-170.0,99.0,-464.0,-218.0,6
2524,20.0,-117.0,-88.0,-123.0,-161.0,-157.0,80.0,-449.0,-214.0,6
2525,14.0,-116.0,-88.0,-163.0,-120.0,-146.0,63.0,-439.0,-207.0,6
2526,10.0,-116.0,-88.0,-206.0,-92.0,-138.0,38.0,-442.0,-209.0,6
2527,4.0,-117.0,-87.0,-245.0,-79.0,-135.0,22.0,-450.0,-211.0,6
2528,1.0,-121.0,-82.0,-280.0,-79.0,-136.0,11.0,-468.0,-203.0,6
2529,-1.0,-122.0,-87.0,-306.0,-87.0,-139.0,1.0,-476.0,-206.0,6
2530,-1.0,-130.0,-81.0,-319.0,-103.0,-146.0,4.0,-502.0,-204.0,6
2531,4.0,-139.0,-84.0,-329.0,-126.0,-152.0,12.0,-525.0,-202.0,6
2532,4.0,-144.0,-87.0,-343.0,-151.0,-157.0,20.0,-562.0,-212.0,6
2533,9.0,-153.0,-84.0,-360.0,-178.0,-158.0,35.0,-589.0,-209.0,6
2534,9.0,-159.0,-85.0,-379.0,-204.0,-157.0,44.0,-618.0,-209.0,6
2535,13.0,-168.0,-86.0,-392.0,-228.0,-151.0,61.0,-641.0,-201.0,6
2536,15.0,-174.0,-84.0,-397.0,-250.0,-141.0,60.0,-668.0,-204.0,6
2537,16.0,-182.0,-87.0,-392.0,-273.0,-127.0,63.0,-684.0,-202.0,6
2538,15.0,-182.0,-80.0,-375.0,-294.0,-112.0,66.0,-705.0,-207.0,6
2539,16.0,-182.0,-84.0,-350.0,-315.0,-96.0,64.0,-702.0,-207.0,6
2540,11.0,-184.0,-82.0,-317.0,-336.0,-82.0,55.0,-697.0,-205.0,6
2541,9.0,-181.0,-82.0,-278.0,-359.0,-70.0,38.0,-695.0,-197.0,6
2542,5.0,-178.0,-79.0,-234.0,-382.0,-61.0,31.0,-673.0,-192.0,6
2543,3.0,-171.0,-81.0,-181.0,-407.0,-56.0,19.0,-660.0,-182.0,6
2544,2.0,-173.0,-80.0,-123.0,-433.0,-55.0,4.0,-635.0,-179.0,6
2545,0.0,-165.0,-83.0,-67.0,-449.0,-54.0,8.0,-614.0,-182.0,6
2546,2.0,-158.0,-81.0,-13.0,-452.0,-53.0,15.0,-605.0,-186.0,6
2547,11.0,-157.0,-82.0,34.0,-436.0,-47.0,24.0,-598.0,-178.0,6
2548,8.0,-159.0,-78.0,72.0,-405.0,-38.0,31.0,-609.0,-155.0,6
2549,7.0,-160.0,-65.0,99.0,-373.0,-23.0,23.0,-618.0,-127.0,6
2550,-1.0,-167.0,-67.0,121.0,-358.0,7.0,-1.0,-635.0,-109.0,6
2551,-7.0,-173.0,-57.0,133.0,-367.0,44.0,-7.0,-662.0,-98.0,6
2552,-10.0,-179.0,-62.0,139.0,-399.0,82.0,-23.0,-685.0,-117.0,6
2553,-12.0,-181.0,-69.0,128.0,-447.0,116.0,-33.0,-700.0,-139.0,6
2554,-11.0,-180.0,-79.0,97.0,-495.0,144.0,-35.0,-704.0,-178.0,6
2555,-10.0,-179.0,-88.0,41.0,-534.0,166.0,-35.0,-696.0,-208.0,6
2556,-6.0,-176.0,-86.0,-27.0,-562.0,183.0,-25.0,-685.0,-218.0,6
2557,-4.0,-174.0,-87.0,-86.0,-581.0,197.0,-9.0,-671.0,-202.0,6
2558,3.0,-179.0,-79.0,-119.0,-603.0,201.0,18.0,-679.0,-172.0,6
2559,5.0,-182.0,-70.0,-115.0,-633.0,191.0,37.0,-686.0,-141.0,6
2560,5.0,-182.0,-64.0,-73.0,-678.0,177.0,30.0,-683.0,-120.0,6
2561,8.0,-181.0,-61.0,-3.0,-728.0,162.0,45.0,-682.0,-118.0,6
2562,13.0,-174.0,-64.0,82.0,-774.0,145.0,65.0,-666.0,-129.0,6
2563,20.0,-171.0,-69.0,158.0,-809.0,122.0,82.0,-644.0,-139.0,6
2564,27.0,-165.0,-70.0,220.0,-819.0,98.0,107.0,-626.0,-139.0,6
2565,39.0,-161.0,-66.0,265.0,-801.0,74.0,144.0,-605.0,-129.0,6
2566,48.0,-154.0,-63.0,296.0,-752.0,52.0,194.0,-588.0,-114.0,6
2567,61.0,-154.0,-58.0,311.0,-679.0,30.0,232.0,-581.0,-93.0,6
2568,69.0,-151.0,-53.0,318.0,-579.0,6.0,260.0,-582.0,-73.0,6
2569,65.0,-146.0,-55.0,318.0,-456.0,-11.0,286.0,-594.0,-55.0,6
2570,81.0,-160.0,-48.0,310.0,-316.0,-15.0,306.0,-624.0,-47.0,6
2571,80.0,-168.0,-43.0,279.0,-169.0,-5.0,310.0,-659.0,-44.0,6
2572,82.0,-184.0,-49.0,238.0,-28.0,18.0,297.0,-706.0,-39.0,6
2573,73.0,-193.0,-52.0,191.0,92.0,44.0,283.0,-755.0,-60.0,6
2574,63.0,-201.0,-62.0,140.0,187.0,65.0,252.0,-785.0,-98.0,6
2575,51.0,-203.0,-77.0,77.0,260.0,84.0,201.0,-799.0,-160.0,6
2576,36.0,-207.0,-91.0,0.0,312.0,108.0,146.0,-800.0,-219.0,6
2577,22.0,-206.0,-105.0,-94.0,344.0,135.0,92.0,-804.0,-273.0,6
2578,9.0,-208.0,-110.0,-191.0,356.0,159.0,44.0,-808.0,-306.0,6
2579,-10.0,-212.0,-110.0,-276.0,348.0,174.0,-7.0,-817.0,-306.0,6
2580,-17.0,-212.0,-100.0,-327.0,318.0,174.0,-51.0,-836.0,-271.0,6
2581,-23.0,-234.0,-84.0,-326.0,263.0,165.0,-81.0,-883.0,-207.0,6
2582,-24.0,-247.0,-59.0,-261.0,185.0,146.0,-97.0,-929.0,-133.0,6
2583,-24.0,-261.0,-47.0,-139.0,96.0,117.0,-90.0,-977.0,-67.0,6
2584,-16.0,-270.0,-31.0,14.0,2.0,84.0,-63.0,-1014.0,-6.0,6
2585,-11.0,-276.0,-27.0,170.0,-82.0,52.0,-31.0,-1042.0,26.0,6
2586,0.0,-274.0,-20.0,304.0,-147.0,27.0,-1.0,-1051.0,44.0,6
2587,-4.0,-263.0,-18.0,401.0,-200.0,9.0,4.0,-1039.0,65.0,6
2588,0.0,-261.0,-15.0,453.0,-258.0,-2.0,13.0,-1005.0,72.0,6
2589,12.0,-255.0,-25.0,465.0,-325.0,-7.0,44.0,-996.0,50.0,6
2590,19.0,-253.0,-39.0,436.0,-373.0,-15.0,71.0,-993.0,-24.0,6
2591,31.0,-250.0,-77.0,382.0,-379.0,-29.0,137.0,-1001.0,-111.0,6
2592,59.0,-268.0,-92.0,326.0,-304.0,-47.0,181.0,-1037.0,-215.0,6
2593,57.0,-268.0,-109.0,273.0,-151.0,-71.0,209.0,-1049.0,-285.0,6
2594,58.0,-269.0,-114.0,207.0,9.0,-88.0,216.0,-1048.0,-328.0,6
2595,59.0,-266.0,-122.0,118.0,115.0,-85.0,236.0,-1048.0,-357.0,6
2596,57.0,-264.0,-129.0,13.0,138.0,-65.0,234.0,-1044.0,-383.0,6
2597,47.0,-266.0,-131.0,-83.0,95.0,-39.0,198.0,-1041.0,-398.0,6
2598,33.0,-272.0,-135.0,-150.0,47.0,-12.0,126.0,-1053.0,-420.0,6
2599,15.0,-280.0,-148.0,-176.0,43.0,14.0,61.0,-1084.0,-447.0,6
2600,4.0,-292.0,-166.0,-175.0,104.0,28.0,-4.0,-1116.0,-511.0,6
2601,-8.0,-301.0,-188.0,-170.0,219.0,25.0,-42.0,-1159.0,-611.0,6
2602,-16.0,-318.0,-210.0,-194.0,368.0,3.0,-76.0,-1197.0,-710.0,6
2603,-19.0,-317.0,-227.0,-278.0,515.0,-30.0,-95.0,-1239.0,-775.0,6
2604,-23.0,-326.0,-221.0,-401.0,633.0,-60.0,-101.0,-1282.0,-768.0,6
2605,-17.0,-347.0,-199.0,-517.0,707.0,-82.0,-85.0,-1332.0,-701.0,6
2606,-16.0,-371.0,-167.0,-585.0,733.0,-94.0,-68.0,-1409.0,-578.0,6
2607,-11.0,-396.0,-140.0,-572.0,715.0,-101.0,-44.0,-1493.0,-463.0,6
2608,-7.0,-416.0,-134.0,-482.0,682.0,-112.0,-24.0,-1581.0,-407.0,6
2609,0.0,-435.0,-138.0,-354.0,668.0,-127.0,-6.0,-1659.0,-422.0,6
2610,-2.0,-443.0,-149.0,-240.0,691.0,-136.0,-10.0,-1701.0,-463.0,6
2611,-1.0,-449.0,-163.0,-175.0,727.0,-132.0,-10.0,-1729.0,-500.0,6
2612,-12.0,-444.0,-164.0,-155.0,741.0,-115.0,-23.0,-1732.0,-513.0,6
2613,-17.0,-439.0,-166.0,-161.0,705.0,-84.0,-49.0,-1701.0,-541.0,6
2614,-34.0,-426.0,-166.0,-159.0,625.0,-28.0,-100.0,-1659.0,-540.0,6
2615,-43.0,-424.0,-156.0,-118.0,521.0,54.0,-145.0,-1631.0,-512.0,6
2616,-53.0,-415.0,-139.0,-14.0,428.0,151.0,-183.0,-1593.0,-453.0,6
2617,-58.0,-410.0,-124.0,155.0,372.0,247.0,-212.0,-1571.0,-372.0,6
2618,-67.0,-404.0,-96.0,363.0,347.0,329.0,-249.0,-1535.0,-282.0,6
2619,-77.0,-397.0,-79.0,572.0,339.0,385.0,-291.0,-1509.0,-203.0,6
2620,-88.0,-388.0,-60.0,758.0,339.0,415.0,-334.0,-1490.0,-118.0,6
2621,-98.0,-377.0,-56.0,903.0,342.0,415.0,-374.0,-1453.0,-90.0,6
2622,-104.0,-372.0,-57.0,990.0,347.0,390.0,-404.0,-1445.0,-103.0,6
2623,-107.0,-364.0,-74.0,1011.0,368.0,336.0,-420.0,-1410.0,-142.0,6
2624,-103.0,-349.0,-87.0,957.0,398.0,262.0,-412.0,-1371.0,-206.0,6
2625,-99.0,-334.0,-105.0,840.0,418.0,177.0,-392.0,-1313.0,-275.0,6
2626,-92.0,-315.0,-116.0,670.0,407.0,95.0,-348.0,-1253.0,-327.0,6
2627,-74.0,-307.0,-118.0,479.0,360.0,28.0,-289.0,-1202.0,-339.0,6
2628,-55.0,-302.0,-115.0,303.0,293.0,-21.0,-207.0,-1175.0,-321.0,6
2629,-37.0,-303.0,-107.0,172.0,220.0,-48.0,-148.0,-1176.0,-294.0,6
2630,-20.0,-309.0,-104.0,88.0,157.0,-56.0,-91.0,-1189.0,-263.0,6
2631,-12.0,-310.0,-96.0,38.0,121.0,-52.0,-43.0,-1193.0,-249.0,6
2632,0.0,-311.0,-98.0,4.0,124.0,-36.0,-14.0,-1205.0,-246.0,6
2633,7.0,-310.0,-96.0,-24.0,153.0,-8.0,14.0,-1188.0,-245.0,6
2634,7.0,-304.0,-98.0,-55.0,191.0,27.0,25.0,-1182.0,-258.0,6
2635,8.0,-299.0,-101.0,-85.0,224.0,73.0,31.0,-1165.0,-263.0,6
2636,4.0,-295.0,-103.0,-111.0,248.0,126.0,21.0,-1149.0,-276.0,6
2637,0.0,-293.0,-104.0,-126.0,266.0,177.0,-5.0,-1128.0,-282.0,6
2638,-9.0,-288.0,-103.0,-119.0,284.0,220.0,-27.0,-1109.0,-288.0,6
2639,-15.0,-283.0,-107.0,-92.0,303.0,251.0,-56.0,-1097.0,-277.0,6
2640,-24.0,-281.0,-105.0,-51.0,318.0,269.0,-89.0,-1083.0,-276.0,6
2641,-32.0,-272.0,-104.0,-2.0,327.0,270.0,-123.0,-1061.0,-272.0,6
2642,-43.0,-267.0,-103.0,44.0,332.0,258.0,-148.0,-1040.0,-274.0,6
2643,-47.0,-262.0,-99.0,82.0,334.0,232.0,-176.0,-1010.0,-261.0,6
2644,-52.0,-251.0,-94.0,107.0,329.0,196.0,-196.0,-975.0,-251.0,6
2645,-59.0,-241.0,-90.0,123.0,309.0,152.0,-213.0,-941.0,-232.0,6
2646,-62.0,-234.0,-87.0,129.0,278.0,110.0,-231.0,-899.0,-221.0,6
2647,-64.0,-218.0,-86.0,130.0,241.0,73.0,-243.0,-849.0,-208.0,6
2648,-64.0,-205.0,-85.0,132.0,204.0,41.0,-245.0,-799.0,-210.0,6
2649,-60.0,-192.0,-87.0,138.0,172.0,19.0,-225.0,-752.0,-207.0,6
2650,-56.0,-182.0,-88.0,145.0,144.0,0.0,-208.0,-705.0,-221.0,6
2651,-52.0,-172.0,-92.0,146.0,119.0,-14.0,-190.0,-666.0,-233.0,6
2652,-41.0,-168.0,-93.0,133.0,94.0,-24.0,-161.0,-632.0,-235.0,6
2653,-32.0,-158.0,-94.0,109.0,73.0,-26.0,-129.0,-618.0,-248.0,6
2654,-24.0,-158.0,-98.0,74.0,49.0,-24.0,-101.0,-608.0,-240.0,6
2655,-19.0,-158.0,-97.0,35.0,27.0,-18.0,-78.0,-604.0,-236.0,6
2656,-15.0,-157.0,-94.0,-1.0,6.0,-11.0,-60.0,-602.0,-228.0,6
2657,-10.0,-160.0,-94.0,-30.0,-10.0,-5.0,-30.0,-610.0,-228.0,6
2658,-5.0,-158.0,-88.0,-51.0,-23.0,-5.0,-26.0,-613.0,-223.0,6
2659,-5.0,-161.0,-90.0,-62.0,-27.0,-7.0,-20.0,-617.0,-217.0,6
2660,-5.0,-163.0,-90.0,-68.0,-24.0,-14.0,-24.0,-616.0,-218.0,6
2661,-7.0,-160.0,-90.0,-66.0,-10.0,-23.0,-20.0,-613.0,-221.0,6
2662,-9.0,-161.0,-88.0,-65.0,8.0,-36.0,-30.0,-610.0,-222.0,6
2663,-10.0,-159.0,-95.0,-64.0,25.0,-47.0,-39.0,-608.0,-232.0,6
2664,-10.0,-160.0,-89.0,-68.0,41.0,-59.0,-47.0,-610.0,-223.0,6
2665,-15.0,-160.0,-89.0,-73.0,54.0,-70.0,-50.0,-611.0,-222.0,6
2666,-11.0,-163.0,-89.0,-76.0,66.0,-83.0,-55.0,-620.0,-214.0,6
2667,-16.0,-168.0,-86.0,-74.0,80.0,-97.0,-53.0,-633.0,-208.0,6
2668,-15.0,-169.0,-85.0,-59.0,95.0,-114.0,-56.0,-648.0,-199.0,6
2669,-12.0,-178.0,-79.0,-30.0,112.0,-131.0,-57.0,-665.0,-180.0,6
2670,-15.0,-179.0,-76.0,14.0,134.0,-149.0,-60.0,-677.0,-172.0,6
2671,-16.0,-183.0,-73.0,70.0,156.0,-165.0,-67.0,-695.0,-153.0,6
2672,-16.0,-185.0,-77.0,133.0,175.0,-176.0,-67.0,-703.0,-149.0,6
2673,-16.0,-186.0,-75.0,192.0,186.0,-195.0,-60.0,-712.0,-153.0,6
2674,-19.0,-185.0,-77.0,236.0,181.0,-217.0,-76.0,-711.0,-170.0,6
2675,-24.0,-180.0,-78.0,258.0,160.0,-239.0,-90.0,-697.0,-179.0,6
2676,-30.0,-172.0,-80.0,264.0,120.0,-258.0,-109.0,-663.0,-194.0,6
2677,-31.0,-159.0,-86.0,260.0,80.0,-277.0,-122.0,-618.0,-208.0,6
2678,-31.0,-146.0,-93.0,249.0,48.0,-289.0,-128.0,-572.0,-218.0,6
2679,-34.0,-133.0,-91.0,231.0,32.0,-290.0,-143.0,-516.0,-225.0,6
2680,-37.0,-117.0,-88.0,212.0,31.0,-285.0,-145.0,-462.0,-225.0,6
2681,-34.0,-108.0,-86.0,190.0,35.0,-272.0,-144.0,-418.0,-197.0,6
2682,-32.0,-103.0,-75.0,166.0,38.0,-254.0,-129.0,-382.0,-173.0,6
2683,-30.0,-98.0,-73.0,139.0,41.0,-231.0,-118.0,-391.0,-154.0,6
2684,-21.0,-100.0,-73.0,106.0,44.0,-206.0,-93.0,-392.0,-142.0,6
2685,-17.0,-105.0,-74.0,55.0,53.0,-188.0,-72.0,-416.0,-155.0,6
2686,-13.0,-115.0,-77.0,-15.0,68.0,-179.0,-52.0,-445.0,-155.0,6
2687,-7.0,-122.0,-74.0,-122.0,86.0,-173.0,-31.0,-484.0,-155.0,6
2688,0.0,-135.0,-71.0,-217.0,109.0,-173.0,-10.0,-524.0,-151.0,6
2689,11.0,-140.0,-74.0,-300.0,132.0,-179.0,17.0,-577.0,-150.0,6
2690,9.0,-159.0,-72.0,-369.0,149.0,-188.0,40.0,-621.0,-151.0,6
2691,9.0,-176.0,-75.0,-426.0,158.0,-201.0,40.0,-671.0,-151.0,6
2692,8.0,-185.0,-66.0,-464.0,148.0,-214.0,32.0,-710.0,-143.0,6
2693,2.0,-201.0,-70.0,-480.0,120.0,-227.0,23.0,-760.0,-123.0,6
2694,-2.0,-212.0,-55.0,-465.0,81.0,-238.0,0.0,-805.0,-85.0,6
2695,-7.0,-226.0,-47.0,-415.0,35.0,-247.0,-21.0,-853.0,-58.0,6
2696,-15.0,-237.0,-36.0,-328.0,-11.0,-253.0,-51.0,-896.0,-12.0,6
2697,-18.0,-246.0,-28.0,-204.0,-44.0,-260.0,-79.0,-935.0,7.0,6
2698,-30.0,-252.0,-30.0,-57.0,-55.0,-272.0,-105.0,-965.0,18.0,6
2699,-34.0,-261.0,-36.0,90.0,-50.0,-288.0,-146.0,-978.0,7.0,6
2700,-52.0,-254.0,-36.0,214.0,-38.0,-305.0,-177.0,-982.0,-11.0,6
2701,-56.0,-249.0,-42.0,303.0,-29.0,-312.0,-201.0,-972.0,-30.0,6
2702,-63.0,-246.0,-42.0,352.0,-38.0,-307.0,-227.0,-952.0,-33.0,6
2703,-61.0,-242.0,-45.0,370.0,-68.0,-291.0,-233.0,-932.0,-38.0,6
2704,-61.0,-229.0,-49.0,377.0,-110.0,-269.0,-233.0,-905.0,-48.0,6
2705,-53.0,-227.0,-52.0,379.0,-148.0,-244.0,-204.0,-872.0,-64.0,6
2706,-42.0,-217.0,-57.0,370.0,-165.0,-219.0,-169.0,-846.0,-85.0,6
2707,-34.0,-206.0,-64.0,334.0,-157.0,-194.0,-144.0,-815.0,-113.0,6
2708,-26.0,-196.0,-68.0,266.0,-134.0,-170.0,-104.0,-787.0,-139.0,6
2709,-13.0,-191.0,-78.0,165.0,-110.0,-149.0,-69.0,-766.0,-152.0,6
2710,-2.0,-191.0,-72.0,47.0,-94.0,-127.0,-28.0,-751.0,-152.0,6
2711,4.0,-188.0,-67.0,-76.0,-88.0,-105.0,14.0,-742.0,-139.0,6
2712,18.0,-193.0,-69.0,-187.0,-92.0,-86.0,58.0,-750.0,-138.0,6
2713,29.0,-196.0,-65.0,-282.0,-92.0,-66.0,115.0,-769.0,-122.0,6
2714,30.0,-204.0,-57.0,-354.0,-79.0,-51.0,114.0,-797.0,-93.0,6
2715,22.0,-218.0,-54.0,-392.0,-61.0,-34.0,86.0,-833.0,-72.0,6
2716,17.0,-229.0,-50.0,-397.0,-41.0,-11.0,58.0,-879.0,-63.0,6
2717,16.0,-245.0,-50.0,-355.0,-20.0,21.0,44.0,-930.0,-63.0,6
2718,6.0,-256.0,-51.0,-268.0,14.0,51.0,22.0,-974.0,-77.0,6
2719,5.0,-268.0,-61.0,-155.0,76.0,79.0,-2.0,-1030.0,-97.0,6
2720,7.0,-285.0,-63.0,-40.0,182.0,98.0,5.0,-1097.0,-120.0,6
2721,13.0,-307.0,-66.0,68.0,333.0,97.0,29.0,-1161.0,-129.0,6
2722,21.0,-321.0,-73.0,162.0,504.0,72.0,56.0,-1229.0,-150.0,6
2723,23.0,-331.0,-80.0,226.0,644.0,23.0,93.0,-1275.0,-187.0,6
2724,28.0,-336.0,-96.0,244.0,699.0,-35.0,111.0,-1303.0,-252.0,6
2725,20.0,-330.0,-116.0,210.0,634.0,-90.0,110.0,-1295.0,-323.0,6
2726,5.0,-324.0,-134.0,131.0,444.0,-126.0,64.0,-1277.0,-419.0,6
2727,-19.0,-319.0,-156.0,25.0,169.0,-134.0,-33.0,-1255.0,-505.0,6
2728,-56.0,-315.0,-177.0,-84.0,-139.0,-102.0,-172.0,-1222.0,-580.0,6
2729,-88.0,-317.0,-189.0,-174.0,-434.0,-27.0,-305.0,-1228.0,-626.0,6
2730,-108.0,-329.0,-185.0,-234.0,-674.0,60.0,-389.0,-1274.0,-626.0,6
2731,-110.0,-348.0,-181.0,-261.0,-847.0,121.0,-418.0,-1340.0,-589.0,6
2732,-105.0,-371.0,-160.0,-253.0,-966.0,142.0,-399.0,-1415.0,-526.0,6
2733,-86.0,-389.0,-150.0,-221.0,-1037.0,128.0,-339.0,-1496.0,-477.0,6
2734,-55.0,-408.0,-140.0,-179.0,-1056.0,93.0,-237.0,-1575.0,-442.0,6
2735,-20.0,-421.0,-133.0,-130.0,-1005.0,48.0,-112.0,-1622.0,-416.0,6
2736,9.0,-430.0,-127.0,-66.0,-879.0,8.0,7.0,-1647.0,-376.0,6
2737,35.0,-438.0,-123.0,15.0,-703.0,-21.0,105.0,-1677.0,-363.0,6
2738,52.0,-439.0,-126.0,99.0,-522.0,-30.0,184.0,-1695.0,-373.0,6
2739,68.0,-439.0,-137.0,162.0,-383.0,-28.0,247.0,-1696.0,-417.0,6
2740,75.0,-437.0,-152.0,178.0,-301.0,-23.0,296.0,-1692.0,-472.0,6
2741,77.0,-426.0,-161.0,148.0,-280.0,-23.0,305.0,-1664.0,-503.0,6
2742,81.0,-415.0,-153.0,89.0,-298.0,-23.0,312.0,-1623.0,-489.0,6
2743,81.0,-408.0,-136.0,32.0,-325.0,-22.0,310.0,-1586.0,-423.0,6
2744,82.0,-402.0,-111.0,11.0,-330.0,-16.0,316.0,-1568.0,-311.0,6
2745,82.0,-399.0,-90.0,22.0,-297.0,-3.0,312.0,-1546.0,-234.0,6
2746,79.0,-402.0,-79.0,42.0,-235.0,15.0,300.0,-1557.0,-177.0,6
2747,77.0,-396.0,-74.0,43.0,-160.0,25.0,292.0,-1533.0,-157.0,6
2748,71.0,-392.0,-78.0,19.0,-82.0,22.0,272.0,-1519.0,-165.0,6
2749,63.0,-384.0,-75.0,-21.0,-17.0,12.0,249.0,-1492.0,-178.0,6
2750,57.0,-378.0,-77.0,-53.0,25.0,2.0,219.0,-1454.0,-192.0,6
2751,49.0,-373.0,-78.0,-57.0,42.0,-9.0,195.0,-1423.0,-199.0,6
2752,44.0,-365.0,-80.0,-26.0,44.0,-14.0,167.0,-1393.0,-199.0,6
2753,34.0,-355.0,-85.0,34.0,38.0,-14.0,137.0,-1363.0,-200.0,6
2754,26.0,-347.0,-89.0,108.0,26.0,-5.0,108.0,-1340.0,-211.0,6
2755,22.0,-343.0,-88.0,168.0,23.0,7.0,78.0,-1316.0,-235.0,6
2756,14.0,-331.0,-98.0,188.0,31.0,14.0,45.0,-1293.0,-247.0,6
2757,5.0,-322.0,-93.0,161.0,44.0,12.0,9.0,-1270.0,-244.0,6
2758,-3.0,-319.0,-93.0,96.0,52.0,-3.0,-21.0,-1234.0,-231.0,6
2759,-11.0,-312.0,-83.0,8.0,47.0,-29.0,-39.0,-1207.0,-209.0,6
2760,-16.0,-304.0,-80.0,-77.0,33.0,-55.0,-58.0,-1176.0,-186.0,6
2761,-17.0,-298.0,-72.0,-140.0,18.0,-80.0,-75.0,-1150.0,-167.0,6
2762,-17.0,-290.0,-71.0,-176.0,10.0,-96.0,-75.0,-1125.0,-150.0,6
2763,-18.0,-283.0,-69.0,-192.0,5.0,-111.0,-73.0,-1091.0,-140.0,6
2764,-17.0,-270.0,-67.0,-186.0,-6.0,-124.0,-74.0,-1058.0,-145.0,6
2765,-15.0,-261.0,-70.0,-165.0,-20.0,-132.0,-57.0,-1004.0,-154.0,6
2766,-13.0,-248.0,-75.0,-137.0,-38.0,-136.0,-40.0,-959.0,-175.0,6
2767,-6.0,-238.0,-84.0,-107.0,-56.0,-137.0,-29.0,-916.0,-194.0,6
2768,-1.0,-226.0,-85.0,-84.0,-74.0,-134.0,-9.0,-865.0,-215.0,6
2769,0.0,-210.0,-92.0,-70.0,-87.0,-133.0,6.0,-824.0,-225.0,6
2770,9.0,-202.0,-90.0,-67.0,-98.0,-134.0,35.0,-784.0,-237.0,6
2771,15.0,-194.0,-88.0,-74.0,-107.0,-133.0,45.0,-750.0,-222.0,6
2772,16.0,-185.0,-87.0,-86.0,-119.0,-127.0,56.0,-714.0,-211.0,6
2773,21.0,-180.0,-89.0,-107.0,-125.0,-117.0,77.0,-692.0,-212.0,6
2774,25.0,-169.0,-83.0,-138.0,-120.0,-103.0,95.0,-668.0,-208.0,6
2775,33.0,-169.0,-83.0,-179.0,-110.0,-92.0,114.0,-646.0,-200.0,6
2776,33.0,-164.0,-81.0,-232.0,-95.0,-88.0,124.0,-639.0,-187.0,6
2777,35.0,-168.0,-77.0,-288.0,-83.0,-88.0,131.0,-633.0,-175.0,6
2778,34.0,-165.0,-77.0,-343.0,-74.0,-91.0,136.0,-631.0,-165.0,6
2779,35.0,-165.0,-72.0,-395.0,-68.0,-93.0,129.0,-640.0,-159.0,6
2780,33.0,-167.0,-75.0,-434.0,-63.0,-95.0,135.0,-645.0,-159.0,6
2781,37.0,-172.0,-73.0,-457.0,-56.0,-100.0,141.0,-654.0,-156.0,6
2782,36.0,-174.0,-75.0,-464.0,-45.0,-107.0,140.0,-671.0,-173.0,6
2783,33.0,-176.0,-78.0,-460.0,-26.0,-110.0,134.0,-686.0,-181.0,6
2784,34.0,-183.0,-86.0,-450.0,-6.0,-108.0,137.0,-696.0,-198.0,6
2785,34.0,-185.0,-84.0,-433.0,12.0,-102.0,124.0,-717.0,-195.0,6
2786,33.0,-189.0,-84.0,-411.0,29.0,-93.0,121.0,-734.0,-206.0,6
2787,32.0,-196.0,-84.0,-388.0,44.0,-85.0,120.0,-747.0,-207.0,6
2788,32.0,-199.0,-84.0,-366.0,61.0,-74.0,123.0,-765.0,-207.0,6
2789,33.0,-200.0,-83.0,-353.0,78.0,-67.0,127.0,-774.0,-213.0,6
2790,33.0,-201.0,-87.0,-343.0,96.0,-59.0,135.0,-784.0,-215.0,6
2791,38.0,-204.0,-85.0,-336.0,111.0,-53.0,140.0,-785.0,-206.0,6
2792,38.0,-207.0,-87.0,-331.0,121.0,-48.0,140.0,-788.0,-202.0,6
2793,35.0,-203.0,-83.0,-326.0,122.0,-42.0,140.0,-791.0,-195.0,6
2794,33.0,-210.0,-85.0,-322.0,110.0,-38.0,131.0,-800.0,-196.0,6
2795,31.0,-210.0,-80.0,-320.0,89.0,-34.0,125.0,-806.0,-208.0,6
2796,27.0,-213.0,-87.0,-324.0,59.0,-27.0,111.0,-812.0,-210.0,6
2797,21.0,-216.0,-88.0,-334.0,21.0,-15.0,97.0,-833.0,-223.0,6
2798,20.0,-221.0,-92.0,-345.0,-21.0,-4.0,79.0,-850.0,-236.0,6
2799,17.0,-229.0,-94.0,-355.0,-61.0,8.0,64.0,-859.0,-250.0,6
2800,12.0,-227.0,-92.0,-354.0,-97.0,19.0,48.0,-863.0,-248.0,6
2801,9.0,-227.0,-89.0,-333.0,-124.0,27.0,36.0,-870.0,-235.0,6
2802,5.0,-229.0,-88.0,-288.0,-148.0,29.0,28.0,-863.0,-221.0,6
2803,3.0,-225.0,-84.0,-231.0,-170.0,31.0,22.0,-856.0,-213.0,6
2804,0.0,-220.0,-87.0,-173.0,-193.0,29.0,16.0,-841.0,-211.0,6
2805,0.0,-216.0,-86.0,-125.0,-217.0,26.0,-4.0,-820.0,-201.0,6
2806,-2.0,-205.0,-80.0,-89.0,-239.0,22.0,1.0,-797.0,-188.0,6
2807,1.0,-204.0,-74.0,-53.0,-257.0,21.0,1.0,-769.0,-177.0,6
2808,3.0,-195.0,-70.0,-18.0,-271.0,17.0,16.0,-746.0,-147.0,6
2809,7.0,-191.0,-64.0,22.0,-276.0,12.0,29.0,-729.0,-117.0,6
2810,5.0,-186.0,-58.0,73.0,-271.0,13.0,33.0,-713.0,-86.0,6
2811,8.0,-185.0,-48.0,133.0,-262.0,20.0,38.0,-704.0,-53.0,6
2812,16.0,-185.0,-42.0,201.0,-254.0,32.0,56.0,-706.0,-22.0,6
2813,16.0,-186.0,-37.0,273.0,-246.0,53.0,63.0,-708.0,-2.0,6
2814,18.0,-185.0,-36.0,337.0,-238.0,81.0,76.0,-708.0,-1.0,6
2815,19.0,-185.0,-41.0,381.0,-229.0,111.0,63.0,-710.0,-18.0,6
2816,14.0,-184.0,-49.0,394.0,-220.0,146.0,63.0,-701.0,-58.0,6
2817,18.0,-180.0,-60.0,363.0,-208.0,182.0,66.0,-705.0,-108.0,6
2818,19.0,-179.0,-73.0,287.0,-184.0,214.0,83.0,-703.0,-154.0,6
2819,25.0,-178.0,-81.0,172.0,-149.0,236.0,97.0,-695.0,-192.0,6
2820,27.0,-176.0,-78.0,32.0,-103.0,249.0,100.0,-698.0,-191.0,6
2821,22.0,-180.0,-76.0,-105.0,-67.0,258.0,86.0,-705.0,-166.0,6
2822,15.0,-179.0,-69.0,-217.0,-55.0,268.0,67.0,-706.0,-124.0,6
2823,9.0,-187.0,-52.0,-279.0,-72.0,281.0,48.0,-715.0,-82.0,6
2824,2.0,-194.0,-44.0,-285.0,-110.0,291.0,24.0,-731.0,-52.0,6
2825,-2.0,-193.0,-45.0,-250.0,-155.0,293.0,12.0,-741.0,-48.0,6
2826,-3.0,-194.0,-53.0,-197.0,-199.0,282.0,-3.0,-747.0,-64.0,6
2827,-5.0,-193.0,-64.0,-159.0,-237.0,264.0,0.0,-750.0,-95.0,6
2828,-6.0,-184.0,-62.0,-142.0,-267.0,243.0,8.0,-753.0,-135.0,6
2829,7.0,-198.0,-75.0,-143.0,-286.0,220.0,23.0,-753.0,-160.0,6
2830,7.0,-200.0,-74.0,-155.0,-295.0,189.0,31.0,-770.0,-171.0,6
2831,13.0,-206.0,-76.0,-170.0,-299.0,156.0,34.0,-792.0,-186.0,6
2832,10.0,-213.0,-79.0,-180.0,-298.0,126.0,35.0,-807.0,-194.0,6
2833,8.0,-214.0,-84.0,-190.0,-289.0,98.0,20.0,-833.0,-199.0,6
2834,5.0,-222.0,-82.0,-190.0,-272.0,71.0,7.0,-846.0,-201.0,6
2835,1.0,-229.0,-76.0,-183.0,-235.0,49.0,6.0,-863.0,-187.0,6
2836,1.0,-232.0,-73.0,-170.0,-185.0,30.0,-9.0,-891.0,-167.0,6
2837,5.0,-240.0,-66.0,-151.0,-126.0,16.0,3.0,-915.0,-128.0,6
2838,9.0,-243.0,-61.0,-123.0,-70.0,12.0,25.0,-926.0,-105.0,6
2839,23.0,-249.0,-55.0,-91.0,-22.0,16.0,49.0,-943.0,-86.0,6
2840,18.0,-245.0,-55.0,-51.0,24.0,29.0,74.0,-948.0,-72.0,6
2841,21.0,-248.0,-52.0,-10.0,59.0,48.0,89.0,-949.0,-74.0,6
2842,28.0,-248.0,-54.0,25.0,81.0,73.0,101.0,-953.0,-70.0,6
2843,26.0,-247.0,-53.0,55.0,90.0,100.0,99.0,-950.0,-81.0,6
2844,23.0,-249.0,-59.0,74.0,81.0,122.0,100.0,-963.0,-103.0,6
2845,20.0,-249.0,-67.0,86.0,62.0,134.0,90.0,-969.0,-132.0,6
2846,15.0,-253.0,-72.0,85.0,38.0,138.0,61.0,-976.0,-160.0,6
2847,6.0,-251.0,-75.0,82.0,10.0,134.0,30.0,-975.0,-177.0,6
2848,-2.0,-255.0,-77.0,78.0,-25.0,128.0,4.0,-981.0,-180.0,6
2849,-9.0,-257.0,-80.0,78.0,-60.0,118.0,-18.0,-985.0,-185.0,6
2850,1.0,-250.0,-85.0,86.0,-93.0,106.0,-31.0,-989.0,-178.0,6
2851,-6.0,-253.0,-77.0,94.0,-112.0,84.0,-23.0,-983.0,-175.0,6
2852,-9.0,-246.0,-78.0,99.0,-114.0,58.0,-24.0,-967.0,-173.0,6
2853,-5.0,-246.0,-76.0,96.0,-100.0,28.0,-13.0,-957.0,-162.0,6
2854,-2.0,-241.0,-75.0,86.0,-72.0,-5.0,-9.0,-935.0,-154.0,6
2855,-1.0,-234.0,-73.0,73.0,-41.0,-33.0,-7.0,-913.0,-151.0,6
2856,0.0,-231.0,-70.0,58.0,-8.0,-58.0,-12.0,-897.0,-151.0,6
2857,-3.0,-225.0,-69.0,38.0,23.0,-79.0,-9.0,-873.0,-138.0,6
2858,0.0,-226.0,-62.0,21.0,47.0,-94.0,-8.0,-865.0,-121.0,6
2859,1.0,-230.0,-51.0,22.0,68.0,-100.0,16.0,-872.0,-76.0,6
2860,0.0,-235.0,-32.0,50.0,79.0,-98.0,9.0,-899.0,-10.0,6
2861,11.0,-244.0,-10.0,113.0,73.0,-87.0,38.0,-939.0,53.0,6
2862,27.0,-270.0,-2.0,215.0,57.0,-68.0,89.0,-1006.0,109.0,6
2863,39.0,-287.0,7.0,356.0,53.0,-42.0,140.0,-1069.0,144.0,6
2864,51.0,-301.0,6.0,524.0,66.0,-15.0,188.0,-1133.0,146.0,6
2865,61.0,-311.0,-4.0,683.0,97.0,6.0,227.0,-1174.0,120.0,6
2866,57.0,-315.0,-4.0,802.0,128.0,22.0,234.0,-1211.0,114.0,6
2867,56.0,-320.0,1.0,879.0,129.0,34.0,233.0,-1233.0,123.0,6
2868,52.0,-323.0,-3.0,926.0,92.0,46.0,226.0,-1259.0,113.0,6
2869,55.0,-328.0,-18.0,962.0,35.0,58.0,220.0,-1264.0,67.0,6
2870,53.0,-327.0,-39.0,978.0,-10.0,69.0,205.0,-1280.0,-11.0,6
2871,49.0,-323.0,-61.0,956.0,-9.0,83.0,186.0,-1272.0,-116.0,6
2872,42.0,-330.0,-92.0,888.0,47.0,95.0,147.0,-1256.0,-222.0,6
2873,28.0,-311.0,-116.0,771.0,157.0,104.0,87.0,-1227.0,-313.0,6
2874,17.0,-308.0,-129.0,624.0,297.0,110.0,44.0,-1206.0,-385.0,6
2875,4.0,-308.0,-145.0,461.0,438.0,110.0,8.0,-1193.0,-443.0,6
2876,-6.0,-311.0,-157.0,297.0,549.0,96.0,-23.0,-1203.0,-491.0,6
2877,-10.0,-311.0,-170.0,134.0,618.0,68.0,-32.0,-1215.0,-551.0,6
2878,-13.0,-314.0,-185.0,-27.0,658.0,29.0,-58.0,-1229.0,-606.0,6
2879,-18.0,-315.0,-192.0,-192.0,684.0,-18.0,-81.0,-1238.0,-643.0,6
2880,-22.0,-317.0,-186.0,-355.0,705.0,-62.0,-97.0,-1226.0,-626.0,6
2881,-25.0,-312.0,-169.0,-501.0,717.0,-99.0,-101.0,-1211.0,-564.0,6
2882,-23.0,-313.0,-152.0,-606.0,711.0,-128.0,-80.0,-1207.0,-477.0,6
2883,-24.0,-316.0,-118.0,-659.0,683.0,-147.0,-79.0,-1207.0,-368.0,6
2884,-27.0,-318.0,-92.0,-634.0,632.0,-141.0,-82.0,-1211.0,-258.0,6
2885,-26.0,-318.0,-74.0,-528.0,550.0,-113.0,-81.0,-1216.0,-176.0,6
2886,-22.0,-321.0,-67.0,-370.0,454.0,-80.0,-76.0,-1222.0,-150.0,6
2887,-17.0,-319.0,-73.0,-203.0,365.0,-59.0,-66.0,-1213.0,-161.0,6
2888,-13.0,-312.0,-86.0,-60.0,301.0,-51.0,-52.0,-1200.0,-199.0,6
2889,-6.0,-304.0,-103.0,37.0,273.0,-54.0,-29.0,-1170.0,-261.0,6
2890,0.0,-295.0,-117.0,83.0,279.0,-60.0,-16.0,-1138.0,-324.0,6
2891,1.0,-281.0,-121.0,74.0,298.0,-63.0,-4.0,-1093.0,-370.0,6
2892,0.0,-268.0,-122.0,31.0,307.0,-63.0,9.0,-1055.0,-371.0,6
2893,0.0,-265.0,-116.0,-19.0,288.0,-54.0,20.0,-1024.0,-333.0,6
2894,-2.0,-268.0,-102.0,-52.0,237.0,-32.0,14.0,-1035.0,-285.0,6
2895,-10.0,-269.0,-92.0,-61.0,168.0,0.0,-9.0,-1046.0,-251.0,6
2896,-14.0,-278.0,-102.0,-56.0,100.0,40.0,-36.0,-1066.0,-252.0,6
2897,-18.0,-279.0,-110.0,-62.0,57.0,80.0,-75.0,-1095.0,-298.0,6
2898,-29.0,-285.0,-125.0,-98.0,47.0,116.0,-115.0,-1111.0,-354.0,6
2899,-42.0,-291.0,-135.0,-164.0,70.0,146.0,-154.0,-1126.0,-407.0,6
2900,-51.0,-292.0,-139.0,-249.0,107.0,166.0,-191.0,-1148.0,-432.0,6
2901,-56.0,-301.0,-146.0,-329.0,144.0,175.0,-218.0,-1161.0,-450.0,6
2902,-62.0,-306.0,-146.0,-395.0,172.0,173.0,-241.0,-1187.0,-459.0,6
2903,-67.0,-312.0,-146.0,-444.0,186.0,157.0,-254.0,-1204.0,-463.0,6
2904,-66.0,-320.0,-141.0,-471.0,192.0,130.0,-256.0,-1227.0,-436.0,6
2905,-64.0,-325.0,-130.0,-466.0,197.0,95.0,-255.0,-1253.0,-398.0,6
2906,-60.0,-332.0,-120.0,-423.0,199.0,52.0,-236.0,-1270.0,-344.0,6
2907,-52.0,-337.0,-106.0,-345.0,194.0,10.0,-207.0,-1278.0,-295.0,6
2908,-46.0,-333.0,-94.0,-243.0,181.0,-28.0,-185.0,-1275.0,-263.0,6
2909,-39.0,-326.0,-95.0,-141.0,167.0,-57.0,-152.0,-1257.0,-248.0,6
2910,-30.0,-313.0,-94.0,-60.0,152.0,-71.0,-126.0,-1218.0,-236.0,6
2911,-22.0,-303.0,-91.0,-1.0,139.0,-69.0,-82.0,-1171.0,-227.0,6
2912,-11.0,-289.0,-82.0,39.0,127.0,-58.0,-31.0,-1129.0,-204.0,6
2913,6.0,-279.0,-75.0,66.0,118.0,-40.0,21.0,-1091.0,-183.0,6
2914,19.0,-269.0,-72.0,87.0,111.0,-18.0,71.0,-1058.0,-166.0,6
2915,30.0,-263.0,-71.0,95.0,111.0,6.0,110.0,-1029.0,-150.0,6
2916,37.0,-260.0,-72.0,87.0,119.0,30.0,140.0,-1004.0,-141.0,6
2917,41.0,-253.0,-67.0,64.0,131.0,57.0,152.0,-984.0,-139.0,6
2918,40.0,-247.0,-67.0,27.0,144.0,86.0,159.0,-966.0,-136.0,6
2919,38.0,-244.0,-65.0,-20.0,157.0,114.0,145.0,-934.0,-132.0,6
2920,31.0,-235.0,-69.0,-76.0,165.0,139.0,115.0,-921.0,-139.0,6
2921,19.0,-230.0,-73.0,-138.0,171.0,154.0,87.0,-900.0,-150.0,6
2922,8.0,-221.0,-75.0,-209.0,177.0,165.0,45.0,-882.0,-164.0,6
2923,0.0,-224.0,-82.0,-288.0,180.0,171.0,-1.0,-868.0,-180.0,6
2924,-12.0,-220.0,-80.0,-365.0,177.0,170.0,-27.0,-865.0,-193.0,6
2925,-16.0,-222.0,-89.0,-435.0,169.0,164.0,-56.0,-858.0,-209.0,6
2926,-27.0,-222.0,-88.0,-492.0,159.0,151.0,-84.0,-862.0,-223.0,6
2927,-27.0,-228.0,-88.0,-530.0,146.0,136.0,-104.0,-872.0,-221.0,6
2928,-29.0,-233.0,-90.0,-544.0,126.0,120.0,-119.0,-894.0,-216.0,6
2929,-37.0,-235.0,-91.0,-535.0,101.0,106.0,-127.0,-906.0,-217.0,6
2930,-35.0,-240.0,-89.0,-509.0,71.0,95.0,-139.0,-918.0,-218.0,6
2931,-34.0,-240.0,-90.0,-475.0,40.0,85.0,-133.0,-921.0,-226.0,6
2932,-34.0,-242.0,-87.0,-448.0,5.0,78.0,-127.0,-932.0,-217.0,6
2933,-31.0,-243.0,-87.0,-431.0,-29.0,73.0,-115.0,-932.0,-211.0,6
2934,-29.0,-243.0,-84.0,-409.0,-61.0,74.0,-99.0,-933.0,-195.0,6
2935,-19.0,-243.0,-83.0,-379.0,-89.0,76.0,-85.0,-932.0,-188.0,6
2936,-16.0,-245.0,-80.0,-338.0,-110.0,83.0,-59.0,-925.0,-184.0,6
2937,-10.0,-242.0,-80.0,-292.0,-120.0,88.0,-41.0,-920.0,-183.0,6
2938,-9.0,-240.0,-76.0,-242.0,-120.0,89.0,-28.0,-916.0,-176.0,6
2939,-4.0,-230.0,-79.0,-202.0,-114.0,85.0,-13.0,-907.0,-175.0,6
2940,2.0,-227.0,-73.0,-168.0,-100.0,75.0,1.0,-873.0,-169.0,6
2941,3.0,-219.0,-78.0,-144.0,-81.0,62.0,18.0,-846.0,-171.0,6
2942,5.0,-211.0,-74.0,-128.0,-61.0,47.0,21.0,-809.0,-170.0,6
2943,5.0,-203.0,-76.0,-124.0,-44.0,34.0,16.0,-785.0,-180.0,6
2944,4.0,-197.0,-84.0,-132.0,-29.0,19.0,15.0,-767.0,-194.0,6
2945,0.0,-191.0,-85.0,-159.0,-13.0,3.0,3.0,-746.0,-208.0,6
2946,-5.0,-190.0,-88.0,-197.0,3.0,-16.0,-12.0,-732.0,-213.0,6
2947,-4.0,-188.0,-89.0,-238.0,25.0,-35.0,-18.0,-730.0,-217.0,6
2948,-9.0,-190.0,-90.0,-275.0,45.0,-51.0,-28.0,-729.0,-221.0,6
2949,-8.0,-194.0,-92.0,-304.0,71.0,-64.0,-36.0,-746.0,-227.0,6
2950,-10.0,-198.0,-94.0,-320.0,102.0,-75.0,-36.0,-759.0,-226.0,6
2951,-8.0,-202.0,-91.0,-324.0,136.0,-84.0,-39.0,-773.0,-224.0,6
2952,-10.0,-203.0,-93.0,-316.0,170.0,-88.0,-41.0,-783.0,-238.0,6
2953,-10.0,-204.0,-93.0,-294.0,203.0,-86.0,-36.0,-786.0,-237.0,6
2954,-11.0,-203.0,-96.0,-264.0,233.0,-83.0,-33.0,-779.0,-247.0,6
2955,-10.0,-201.0,-99.0,-229.0,259.0,-74.0,-37.0,-773.0,-253.0,6
2956,-11.0,-193.0,-105.0,-197.0,283.0,-62.0,-33.0,-756.0,-270.0,6
2957,-7.0,-193.0,-107.0,-168.0,303.0,-47.0,-25.0,-744.0,-283.0,6
2958,-3.0,-189.0,-111.0,-149.0,318.0,-32.0,-14.0,-727.0,-291.0,6
2959,0.0,-185.0,-104.0,-137.0,326.0,-22.0,-7.0,-714.0,-286.0,6
2960,2.0,-182.0,-106.0,-125.0,327.0,-19.0,2.0,-699.0,-284.0,6
2961,3.0,-178.0,-104.0,-109.0,323.0,-23.0,16.0,-688.0,-273.0,6
2962,6.0,-177.0,-97.0,-91.0,319.0,-35.0,23.0,-673.0,-259.0,6
2963,9.0,-174.0,-96.0,-68.0,323.0,-50.0,31.0,-654.0,-251.0,6
2964,11.0,-169.0,-98.0,-43.0,330.0,-68.0,43.0,-634.0,-246.0,6
2965,13.0,-161.0,-90.0,-17.0,343.0,-90.0,51.0,-612.0,-230.0,6
2966,14.0,-156.0,-88.0,11.0,356.0,-112.0,54.0,-593.0,-214.0,6
2967,18.0,-153.0,-82.0,39.0,368.0,-136.0,54.0,-578.0,-203.0,6
2968,17.0,-148.0,-76.0,68.0,381.0,-163.0,53.0,-561.0,-178.0,6
2969,10.0,-144.0,-75.0,101.0,397.0,-190.0,40.0,-551.0,-150.0,6
2970,11.0,-143.0,-70.0,140.0,416.0,-216.0,27.0,-546.0,-128.0,6
2971,5.0,-145.0,-59.0,178.0,440.0,-239.0,12.0,-547.0,-104.0,6
2972,-1.0,-145.0,-56.0,216.0,469.0,-259.0,-8.0,-563.0,-78.0,6
2973,-1.0,-151.0,-50.0,248.0,506.0,-275.0,-21.0,-577.0,-58.0,6
2974,-7.0,-155.0,-47.0,279.0,554.0,-289.0,-35.0,-588.0,-42.0,6
2975,-16.0,-160.0,-40.0,300.0,606.0,-297.0,-57.0,-617.0,-28.0,6
2976,-16.0,-168.0,-43.0,303.0,657.0,-294.0,-83.0,-645.0,-31.0,6
2977,-23.0,-171.0,-45.0,275.0,700.0,-283.0,-94.0,-665.0,-37.0,6
2978,-29.0,-180.0,-44.0,226.0,726.0,-268.0,-110.0,-698.0,-35.0,6
2979,-30.0,-185.0,-41.0,159.0,731.0,-259.0,-113.0,-720.0,-25.0,6
2980,-30.0,-192.0,-36.0,101.0,722.0,-256.0,-111.0,-749.0,-6.0,6
2981,-31.0,-202.0,-30.0,73.0,703.0,-258.0,-106.0,-773.0,24.0,6
2982,-28.0,-206.0,-25.0,84.0,672.0,-258.0,-103.0,-802.0,30.0,6
2983,-25.0,-214.0,-26.0,117.0,624.0,-255.0,-81.0,-824.0,31.0,6
2984,-24.0,-223.0,-29.0,148.0,559.0,-250.0,-71.0,-849.0,12.0,6
2985,-16.0,-226.0,-37.0,162.0,483.0,-248.0,-53.0,-869.0,-20.0,6
2986,-15.0,-227.0,-52.0,154.0,411.0,-242.0,-50.0,-884.0,-53.0,6
2987,-13.0,-233.0,-54.0,131.0,356.0,-234.0,-44.0,-896.0,-82.0,6
2988,-14.0,-231.0,-61.0,103.0,323.0,-221.0,-55.0,-899.0,-120.0,6
2989,-13.0,-235.0,-73.0,79.0,310.0,-206.0,-51.0,-904.0,-137.0,6
2990,-12.0,-236.0,-69.0,73.0,315.0,-189.0,-45.0,-905.0,-140.0,6
2991,-14.0,-238.0,-64.0,92.0,337.0,-172.0,-46.0,-907.0,-132.0,6
2992,-13.0,-236.0,-64.0,134.0,361.0,-157.0,-45.0,-906.0,-123.0,6
2993,-16.0,-233.0,-61.0,193.0,374.0,-145.0,-44.0,-894.0,-110.0,6
2994,-14.0,-229.0,-60.0,249.0,369.0,-130.0,-44.0,-888.0,-120.0,6
2995,-15.0,-226.0,-64.0,283.0,348.0,-113.0,-58.0,-866.0,-129.0,6
2996,-18.0,-214.0,-71.0,283.0,317.0,-95.0,-68.0,-839.0,-138.0,6
2997,-15.0,-213.0,-68.0,249.0,289.0,-70.0,-71.0,-821.0,-150.0,6
2998,-17.0,-210.0,-65.0,190.0,271.0,-47.0,-72.0,-807.0,-140.0,6
2999,-20.0,-210.0,-63.0,122.0,263.0,-24.0,-73.0,-823.0,-114.0,6
3000,-16.0,-215.0,-56.0,60.0,264.0,-5.0,-61.0,-841.0,-84.0,6
3001,-12.0,-229.0,-46.0,21.0,275.0,10.0,-38.0,-889.0,-53.0,6
3002,-9.0,-242.0,-39.0,10.0,292.0,20.0,-21.0,-935.0,-8.0,6
3003,-4.0,-258.0,-29.0,30.0,319.0,26.0,-15.0,-993.0,19.0,6
3004,0.0,-271.0,-32.0,62.0,353.0,25.0,-8.0,-1053.0,18.0,6
3005,0.0,-284.0,-40.0,94.0,373.0,27.0,5.0,-1097.0,-17.0,6
3006,3.0,-295.0,-53.0,116.0,368.0,37.0,0.0,-1129.0,-72.0,6
3007,-5.0,-297.0,-72.0,121.0,347.0,43.0,-14.0,-1151.0,-143.0,6
3008,-8.0,-300.0,-90.0,101.0,337.0,47.0,-28.0,-1159.0,-224.0,6
3009,-9.0,-299.0,-109.0,53.0,340.0,49.0,-40.0,-1161.0,-293.0,6
3010,-13.0,-298.0,-116.0,-18.0,354.0,51.0,-53.0,-1166.0,-328.0,6
3011,-8.0,-305.0,-122.0,-97.0,370.0,52.0,-27.0,-1181.0,-353.0,6
3012,5.0,-312.0,-122.0,-172.0,375.0,54.0,22.0,-1203.0,-358.0,6
3013,16.0,-323.0,-118.0,-223.0,358.0,61.0,72.0,-1245.0,-350.0,6
3014,23.0,-332.0,-119.0,-232.0,316.0,75.0,98.0,-1284.0,-352.0,6
3015,14.0,-340.0,-124.0,-216.0,238.0,100.0,68.0,-1304.0,-384.0,6
3016,-6.0,-338.0,-143.0,-210.0,116.0,153.0,-5.0,-1320.0,-430.0,6
3017,-33.0,-332.0,-160.0,-239.0,-49.0,238.0,-104.0,-1318.0,-501.0,6
3018,-48.0,-334.0,-178.0,-322.0,-230.0,340.0,-169.0,-1318.0,-574.0,6
3019,-55.0,-340.0,-181.0,-440.0,-388.0,431.0,-193.0,-1322.0,-601.0,6
3020,-49.0,-344.0,-173.0,-539.0,-498.0,486.0,-195.0,-1333.0,-569.0,6
3021,-41.0,-348.0,-165.0,-569.0,-548.0,508.0,-174.0,-1339.0,-521.0,6
3022,-35.0,-351.0,-154.0,-529.0,-563.0,502.0,-140.0,-1343.0,-487.0,6
3023,-18.0,-348.0,-149.0,-455.0,-559.0,473.0,-92.0,-1337.0,-467.0,6
3024,-5.0,-342.0,-146.0,-377.0,-540.0,420.0,-39.0,-1310.0,-453.0,6
3025,20.0,-336.0,-144.0,-313.0,-491.0,343.0,44.0,-1280.0,-441.0,6
3026,48.0,-327.0,-133.0,-259.0,-400.0,252.0,194.0,-1267.0,-412.0,6
3027,80.0,-329.0,-127.0,-197.0,-261.0,158.0,294.0,-1259.0,-378.0,6
3028,101.0,-329.0,-120.0,-120.0,-90.0,68.0,360.0,-1267.0,-348.0,6
3029,105.0,-331.0,-122.0,-39.0,78.0,-6.0,381.0,-1272.0,-363.0,6
3030,98.0,-330.0,-130.0,25.0,201.0,-50.0,377.0,-1281.0,-413.0,6
3031,91.0,-334.0,-148.0,53.0,263.0,-73.0,343.0,-1297.0,-481.0,6
3032,79.0,-338.0,-158.0,37.0,272.0,-82.0,305.0,-1307.0,-528.0,6
3033,66.0,-339.0,-161.0,-9.0,260.0,-79.0,252.0,-1325.0,-519.0,6
3034,56.0,-349.0,-144.0,-45.0,256.0,-56.0,212.0,-1352.0,-454.0,6
3035,52.0,-355.0,-128.0,-44.0,280.0,-14.0,192.0,-1400.0,-371.0,6
3036,48.0,-377.0,-98.0,2.0,316.0,27.0,185.0,-1459.0,-268.0,6
3037,49.0,-395.0,-76.0,75.0,346.0,56.0,197.0,-1518.0,-181.0,6
3038,49.0,-406.0,-61.0,152.0,342.0,66.0,202.0,-1583.0,-118.0,6
3039,44.0,-415.0,-51.0,211.0,290.0,65.0,193.0,-1611.0,-75.0,6
3040,38.0,-414.0,-47.0,244.0,195.0,68.0,166.0,-1608.0,-73.0,6
3041,30.0,-404.0,-54.0,261.0,78.0,81.0,124.0,-1568.0,-90.0,6
3042,18.0,-393.0,-64.0,275.0,-32.0,114.0,68.0,-1510.0,-127.0,6
3043,6.0,-375.0,-78.0,276.0,-112.0,160.0,28.0,-1449.0,-189.0,6
3044,3.0,-357.0,-91.0,260.0,-150.0,196.0,4.0,-1388.0,-229.0,6
3045,-3.0,-342.0,-92.0,226.0,-152.0,209.0,-19.0,-1337.0,-244.0,6
3046,-10.0,-332.0,-89.0,188.0,-144.0,195.0,-40.0,-1296.0,-223.0,6
3047,-19.0,-325.0,-78.0,165.0,-157.0,163.0,-69.0,-1261.0,-187.0,6
3048,-28.0,-321.0,-62.0,168.0,-195.0,120.0,-107.0,-1226.0,-145.0,6
3049,-36.0,-314.0,-66.0,204.0,-238.0,77.0,-136.0,-1206.0,-127.0,6
3050,-43.0,-310.0,-67.0,256.0,-258.0,38.0,-166.0,-1178.0,-134.0,6
3051,-43.0,-302.0,-71.0,305.0,-249.0,-1.0,-173.0,-1162.0,-148.0,6
3052,-43.0,-293.0,-76.0,333.0,-221.0,-38.0,-171.0,-1129.0,-173.0,6
3053,-44.0,-283.0,-74.0,331.0,-196.0,-73.0,-174.0,-1094.0,-182.0,6
3054,-42.0,-271.0,-85.0,298.0,-181.0,-105.0,-162.0,-1057.0,-203.0,6
3055,-35.0,-254.0,-88.0,243.0,-174.0,-127.0,-139.0,-999.0,-202.0,6
3056,-27.0,-246.0,-81.0,181.0,-189.0,-147.0,-99.0,-939.0,-189.0,6
3057,-17.0,-233.0,-80.0,131.0,-222.0,-163.0,-56.0,-897.0,-184.0,6
3058,-8.0,-221.0,-77.0,99.0,-262.0,-174.0,-19.0,-849.0,-186.0,6
3059,2.0,-212.0,-84.0,82.0,-297.0,-178.0,26.0,-813.0,-196.0,6
3060,14.0,-204.0,-83.0,60.0,-326.0,-177.0,61.0,-786.0,-208.0,6
3061,21.0,-200.0,-86.0,29.0,-352.0,-172.0,96.0,-773.0,-217.0,6
3062,31.0,-194.0,-92.0,-15.0,-379.0,-167.0,128.0,-761.0,-225.0,6
3063,40.0,-194.0,-94.0,-71.0,-404.0,-162.0,154.0,-754.0,-233.0,6
3064,44.0,-191.0,-93.0,-129.0,-427.0,-157.0,173.0,-755.0,-231.0,6
3065,46.0,-196.0,-91.0,-178.0,-447.0,-155.0,191.0,-752.0,-215.0,6
3066,50.0,-196.0,-89.0,-205.0,-460.0,-155.0,195.0,-759.0,-214.0,6
3067,50.0,-198.0,-84.0,-212.0,-464.0,-160.0,197.0,-755.0,-210.0,6
3068,48.0,-199.0,-88.0,-208.0,-463.0,-165.0,195.0,-767.0,-209.0,6
3069,44.0,-199.0,-89.0,-190.0,-451.0,-169.0,190.0,-774.0,-214.0,6
3070,45.0,-200.0,-88.0,-176.0,-432.0,-174.0,173.0,-776.0,-213.0,6
3071,43.0,-199.0,-85.0,-163.0,-412.0,-182.0,158.0,-769.0,-212.0,6
3072,37.0,-195.0,-90.0,-156.0,-391.0,-194.0,144.0,-756.0,-212.0,6
3073,36.0,-193.0,-84.0,-153.0,-372.0,-201.0,133.0,-750.0,-213.0,6
3074,36.0,-195.0,-90.0,-156.0,-346.0,-207.0,120.0,-740.0,-213.0,6
3075,31.0,-187.0,-90.0,-165.0,-315.0,-213.0,118.0,-727.0,-215.0,6
3076,31.0,-185.0,-84.0,-182.0,-283.0,-220.0,113.0,-716.0,-206.0,6
3077,39.0,-196.0,-84.0,-205.0,-249.0,-223.0,114.0,-708.0,-205.0,6
3078,32.0,-186.0,-81.0,-239.0,-218.0,-223.0,122.0,-715.0,-199.0,6
3079,35.0,-191.0,-79.0,-273.0,-189.0,-220.0,118.0,-722.0,-183.0,6
3080,33.0,-192.0,-76.0,-308.0,-167.0,-206.0,121.0,-742.0,-173.0,6
3081,32.0,-200.0,-75.0,-337.0,-152.0,-185.0,123.0,-771.0,-168.0,6
3082,37.0,-211.0,-71.0,-364.0,-142.0,-159.0,129.0,-802.0,-169.0,6
3083,34.0,-219.0,-72.0,-388.0,-137.0,-136.0,142.0,-836.0,-173.0,6
3084,37.0,-229.0,-78.0,-410.0,-137.0,-114.0,133.0,-871.0,-188.0,6
3085,37.0,-232.0,-80.0,-432.0,-144.0,-93.0,143.0,-894.0,-194.0,6
3086,31.0,-239.0,-82.0,-447.0,-159.0,-77.0,134.0,-914.0,-210.0,6
3087,30.0,-228.0,-102.0,-451.0,-181.0,-61.0,118.0,-935.0,-222.0,6
3088,26.0,-241.0,-95.0,-444.0,-211.0,-49.0,100.0,-916.0,-233.0,6
3089,22.0,-238.0,-95.0,-429.0,-249.0,-41.0,92.0,-910.0,-252.0,6
3090,17.0,-235.0,-104.0,-404.0,-287.0,-31.0,78.0,-906.0,-264.0,6
3091,17.0,-233.0,-103.0,-378.0,-324.0,-22.0,72.0,-902.0,-272.0,6
3092,15.0,-229.0,-103.0,-352.0,-352.0,-16.0,63.0,-896.0,-275.0,6
3093,14.0,-231.0,-102.0,-331.0,-369.0,-8.0,60.0,-893.0,-279.0,6
3094,16.0,-232.0,-102.0,-314.0,-376.0,-2.0,66.0,-891.0,-274.0,6
3095,14.0,-230.0,-98.0,-300.0,-377.0,4.0,61.0,-890.0,-262.0,6
3096,16.0,-235.0,-93.0,-287.0,-375.0,8.0,59.0,-893.0,-245.0,6
3097,17.0,-232.0,-92.0,-274.0,-374.0,15.0,61.0,-894.0,-224.0,6
3098,7.0,-236.0,-81.0,-253.0,-374.0,24.0,57.0,-888.0,-207.0,6
3099,16.0,-228.0,-81.0,-225.0,-378.0,34.0,51.0,-879.0,-198.0,6
3100,12.0,-224.0,-85.0,-186.0,-376.0,45.0,46.0,-861.0,-197.0,6
3101,13.0,-220.0,-85.0,-150.0,-367.0,59.0,48.0,-836.0,-204.0,6
3102,17.0,-211.0,-86.0,-119.0,-352.0,70.0,53.0,-809.0,-205.0,6
3103,17.0,-200.0,-90.0,-98.0,-334.0,82.0,60.0,-789.0,-214.0,6
3104,19.0,-194.0,-92.0,-85.0,-308.0,89.0,78.0,-761.0,-224.0,6
3105,24.0,-188.0,-89.0,-81.0,-279.0,98.0,91.0,-734.0,-225.0,6
3106,30.0,-184.0,-93.0,-75.0,-248.0,106.0,105.0,-713.0,-224.0,6
3107,36.0,-184.0,-91.0,-74.0,-216.0,112.0,121.0,-707.0,-223.0,6
3108,38.0,-182.0,-88.0,-78.0,-178.0,115.0,134.0,-708.0,-222.0,6
3109,38.0,-186.0,-73.0,-82.0,-137.0,119.0,143.0,-715.0,-208.0,6
3110,37.0,-186.0,-81.0,-85.0,-101.0,124.0,142.0,-715.0,-192.0,6
3111,34.0,-188.0,-76.0,-91.0,-77.0,127.0,134.0,-729.0,-178.0,6
3112,23.0,-193.0,-71.0,-96.0,-73.0,132.0,110.0,-742.0,-155.0,6
3113,18.0,-193.0,-66.0,-98.0,-88.0,139.0,79.0,-750.0,-135.0,6
3114,10.0,-197.0,-66.0,-98.0,-123.0,149.0,52.0,-750.0,-129.0,6
3115,4.0,-193.0,-66.0,-105.0,-171.0,161.0,25.0,-742.0,-132.0,6
3116,-7.0,-184.0,-68.0,-113.0,-222.0,178.0,0.0,-724.0,-138.0,6
3117,-7.0,-185.0,-74.0,-125.0,-268.0,201.0,-11.0,-711.0,-151.0,6
3118,-5.0,-182.0,-75.0,-141.0,-304.0,224.0,-23.0,-707.0,-164.0,6
3119,-10.0,-182.0,-79.0,-166.0,-328.0,245.0,-22.0,-710.0,-176.0,6
3120,-4.0,-184.0,-80.0,-202.0,-348.0,259.0,-20.0,-707.0,-184.0,6
3121,-4.0,-184.0,-84.0,-245.0,-361.0,267.0,-25.0,-713.0,-192.0,6
3122,-6.0,-185.0,-85.0,-292.0,-371.0,271.0,-19.0,-724.0,-206.0,6
3123,-5.0,-193.0,-86.0,-334.0,-376.0,274.0,-22.0,-735.0,-212.0,6
3124,-8.0,-194.0,-90.0,-365.0,-370.0,275.0,-21.0,-760.0,-221.0,6
3125,-5.0,-204.0,-90.0,-381.0,-352.0,269.0,-23.0,-784.0,-218.0,6
3126,-4.0,-209.0,-88.0,-378.0,-316.0,257.0,-17.0,-804.0,-216.0,6
3127,-2.0,-213.0,-87.0,-351.0,-272.0,240.0,-12.0,-820.0,-212.0,6
3128,2.0,-220.0,-87.0,-305.0,-220.0,221.0,-10.0,-833.0,-212.0,6
3129,0.0,-215.0,-88.0,-249.0,-172.0,199.0,5.0,-832.0,-215.0,6
3130,3.0,-214.0,-91.0,-194.0,-128.0,174.0,7.0,-823.0,-223.0,6
3131,5.0,-207.0,-89.0,-147.0,-87.0,147.0,17.0,-804.0,-232.0,6
3132,7.0,-205.0,-98.0,-124.0,-54.0,125.0,25.0,-780.0,-248.0,6
3133,6.0,-199.0,-101.0,-118.0,-27.0,110.0,23.0,-769.0,-249.0,6
3134,4.0,-197.0,-101.0,-134.0,-12.0,102.0,8.0,-757.0,-260.0,6
3135,-3.0,-191.0,-104.0,-170.0,-10.0,101.0,-5.0,-748.0,-265.0,6
3136,-6.0,-189.0,-100.0,-222.0,-25.0,106.0,-8.0,-743.0,-262.0,6
3137,-6.0,-192.0,-101.0,-280.0,-57.0,116.0,-17.0,-750.0,-264.0,6
3138,-7.0,-196.0,-95.0,-335.0,-101.0,126.0,-28.0,-759.0,-253.0,6
3139,-14.0,-204.0,-91.0,-376.0,-150.0,135.0,-39.0,-788.0,-235.0,6
3140,-15.0,-214.0,-90.0,-397.0,-197.0,141.0,-48.0,-805.0,-213.0,6
3141,-16.0,-220.0,-77.0,-397.0,-242.0,145.0,-57.0,-839.0,-192.0,6
3142,-16.0,-229.0,-75.0,-376.0,-282.0,147.0,-53.0,-871.0,-171.0,6
3143,-15.0,-238.0,-68.0,-331.0,-321.0,139.0,-47.0,-904.0,-136.0,6
3144,-13.0,-248.0,-63.0,-275.0,-361.0,125.0,-43.0,-938.0,-113.0,6
3145,-11.0,-253.0,-59.0,-210.0,-402.0,105.0,-43.0,-957.0,-99.0,6
3146,-12.0,-255.0,-55.0,-142.0,-444.0,86.0,-38.0,-981.0,-83.0,6
3147,-8.0,-259.0,-55.0,-73.0,-481.0,67.0,-25.0,-1003.0,-82.0,6
3148,-7.0,-264.0,-54.0,-10.0,-528.0,39.0,-16.0,-1007.0,-82.0,6
3149,-5.0,-262.0,-59.0,40.0,-560.0,11.0,-16.0,-1006.0,-101.0,6
3150,-11.0,-255.0,-65.0,71.0,-578.0,-11.0,-27.0,-998.0,-131.0,6
3151,-14.0,-251.0,-74.0,79.0,-579.0,-28.0,-47.0,-979.0,-152.0,6
3152,-14.0,-247.0,-79.0,66.0,-570.0,-35.0,-63.0,-959.0,-179.0,6
3153,-14.0,-242.0,-79.0,29.0,-557.0,-41.0,-52.0,-937.0,-193.0,6
3154,-11.0,-236.0,-84.0,-17.0,-545.0,-44.0,-48.0,-924.0,-202.0,6
3155,-6.0,-232.0,-93.0,-70.0,-533.0,-49.0,-21.0,-911.0,-217.0,6
3156,-9.0,-229.0,-90.0,-124.0,-519.0,-58.0,-31.0,-895.0,-212.0,6
3157,-7.0,-227.0,-87.0,-172.0,-515.0,-67.0,-24.0,-891.0,-210.0,6
3158,-1.0,-232.0,-85.0,-208.0,-518.0,-77.0,-5.0,-887.0,-212.0,6
3159,5.0,-235.0,-82.0,-228.0,-520.0,-90.0,20.0,-909.0,-212.0,6
3160,12.0,-241.0,-89.0,-242.0,-513.0,-105.0,37.0,-927.0,-225.0,6
3161,17.0,-250.0,-91.0,-257.0,-493.0,-125.0,70.0,-962.0,-232.0,6
3162,23.0,-262.0,-85.0,-266.0,-467.0,-148.0,88.0,-1004.0,-225.0,6
3163,31.0,-276.0,-82.0,-266.0,-445.0,-160.0,103.0,-1061.0,-211.0,6
3164,32.0,-292.0,-81.0,-247.0,-443.0,-164.0,126.0,-1117.0,-186.0,6
3165,39.0,-311.0,-79.0,-217.0,-468.0,-163.0,159.0,-1179.0,-191.0,6
3166,50.0,-325.0,-100.0,-182.0,-497.0,-165.0,196.0,-1255.0,-238.0,6
3167,59.0,-340.0,-118.0,-166.0,-495.0,-177.0,219.0,-1313.0,-331.0,6
3168,62.0,-349.0,-150.0,-183.0,-444.0,-197.0,232.0,-1346.0,-452.0,6
3169,61.0,-355.0,-180.0,-242.0,-352.0,-224.0,234.0,-1382.0,-567.0,6
3170,60.0,-357.0,-195.0,-327.0,-263.0,-249.0,218.0,-1391.0,-644.0,6
3171,55.0,-362.0,-205.0,-409.0,-193.0,-262.0,214.0,-1398.0,-698.0,6
3172,54.0,-372.0,-212.0,-450.0,-132.0,-262.0,197.0,-1417.0,-720.0,6
3173,49.0,-378.0,-207.0,-428.0,-53.0,-254.0,176.0,-1443.0,-713.0,6
3174,46.0,-388.0,-194.0,-333.0,58.0,-240.0,157.0,-1457.0,-676.0,6
3175,42.0,-388.0,-184.0,-182.0,195.0,-221.0,129.0,-1466.0,-620.0,6
3176,35.0,-382.0,-171.0,0.0,340.0,-196.0,115.0,-1466.0,-575.0,6
3177,31.0,-378.0,-156.0,174.0,476.0,-167.0,99.0,-1446.0,-517.0,6
3178,20.0,-359.0,-143.0,301.0,576.0,-131.0,82.0,-1402.0,-464.0,6
3179,11.0,-337.0,-130.0,382.0,624.0,-83.0,49.0,-1335.0,-387.0,6
3180,2.0,-314.0,-119.0,427.0,611.0,-29.0,27.0,-1242.0,-356.0,6
3181,-6.0,-297.0,-111.0,449.0,551.0,21.0,2.0,-1135.0,-305.0,6
3182,-15.0,-276.0,-102.0,450.0,457.0,65.0,-36.0,-1074.0,-288.0,6
3183,-25.0,-258.0,-103.0,421.0,347.0,98.0,-82.0,-1016.0,-276.0,6
3184,-37.0,-246.0,-105.0,358.0,226.0,123.0,-133.0,-974.0,-287.0,6
3185,-44.0,-246.0,-119.0,253.0,108.0,137.0,-157.0,-961.0,-345.0,6
3186,-48.0,-245.0,-140.0,102.0,22.0,139.0,-186.0,-964.0,-442.0,6
3187,-54.0,-247.0,-171.0,-96.0,-19.0,129.0,-218.0,-986.0,-551.0,6
3188,-57.0,-260.0,-194.0,-341.0,-7.0,110.0,-238.0,-1026.0,-655.0,6
3189,-61.0,-273.0,-219.0,-611.0,49.0,91.0,-248.0,-1090.0,-731.0,6
3190,-57.0,-296.0,-222.0,-864.0,120.0,78.0,-242.0,-1156.0,-755.0,6
3191,-51.0,-321.0,-207.0,-1035.0,176.0,68.0,-203.0,-1237.0,-704.0,6
3192,-40.0,-349.0,-188.0,-1081.0,202.0,58.0,-158.0,-1325.0,-634.0,6
3193,-26.0,-367.0,-169.0,-986.0,210.0,41.0,-114.0,-1395.0,-556.0,6
3194,-16.0,-380.0,-157.0,-778.0,223.0,22.0,-72.0,-1435.0,-497.0,6
3195,-8.0,-379.0,-148.0,-513.0,248.0,5.0,-38.0,-1444.0,-471.0,6
3196,2.0,-370.0,-146.0,-251.0,289.0,-8.0,-10.0,-1397.0,-457.0,6
3197,7.0,-344.0,-140.0,-26.0,339.0,-16.0,9.0,-1318.0,-449.0,6
3198,8.0,-317.0,-140.0,149.0,387.0,-20.0,30.0,-1212.0,-441.0,6
3199,13.0,-286.0,-137.0,264.0,430.0,-17.0,43.0,-1123.0,-424.0,6
3200,15.0,-266.0,-125.0,325.0,459.0,-5.0,55.0,-1039.0,-391.0,6
3201,17.0,-248.0,-116.0,348.0,474.0,19.0,62.0,-960.0,-346.0,6
3202,12.0,-233.0,-103.0,351.0,475.0,54.0,61.0,-903.0,-295.0,6
3203,11.0,-220.0,-91.0,344.0,463.0,94.0,55.0,-855.0,-241.0,6
3204,5.0,-208.0,-79.0,339.0,440.0,135.0,39.0,-817.0,-198.0,6
3205,3.0,-205.0,-75.0,333.0,406.0,175.0,21.0,-793.0,-169.0,6
3206,-6.0,-197.0,-70.0,326.0,364.0,209.0,-6.0,-770.0,-144.0,6
3207,-13.0,-186.0,-64.0,306.0,316.0,235.0,-39.0,-758.0,-150.0,6
3208,-22.0,-190.0,-77.0,265.0,266.0,255.0,-80.0,-738.0,-163.0,6
3209,-33.0,-186.0,-82.0,199.0,211.0,268.0,-108.0,-732.0,-183.0,6
3210,-40.0,-186.0,-89.0,114.0,153.0,273.0,-145.0,-728.0,-221.0,6
3211,-45.0,-187.0,-97.0,19.0,89.0,270.0,-156.0,-736.0,-261.0,6
3212,-48.0,-195.0,-112.0,-85.0,25.0,257.0,-173.0,-758.0,-291.0,6
3213,-47.0,-199.0,-113.0,-188.0,-34.0,244.0,-180.0,-778.0,-321.0,6
3214,-47.0,-207.0,-118.0,-280.0,-79.0,233.0,-185.0,-802.0,-340.0,6
3215,-47.0,-215.0,-122.0,-346.0,-101.0,219.0,-178.0,-823.0,-353.0,6
3216,-43.0,-225.0,-125.0,-385.0,-107.0,208.0,-173.0,-856.0,-374.0,6
3217,-38.0,-230.0,-129.0,-403.0,-95.0,196.0,-167.0,-880.0,-380.0,6
3218,-37.0,-236.0,-129.0,-398.0,-76.0,184.0,-149.0,-905.0,-391.0,6
3219,-32.0,-242.0,-127.0,-374.0,-47.0,171.0,-137.0,-926.0,-384.0,6
3220,-31.0,-245.0,-129.0,-338.0,-10.0,160.0,-123.0,-936.0,-379.0,6
3221,-25.0,-248.0,-126.0,-298.0,28.0,145.0,-121.0,-939.0,-375.0,6
3222,-28.0,-248.0,-122.0,-248.0,68.0,132.0,-112.0,-942.0,-363.0,6
3223,-22.0,-248.0,-119.0,-194.0,109.0,120.0,-105.0,-942.0,-344.0,6
3224,-26.0,-244.0,-117.0,-143.0,142.0,107.0,-106.0,-933.0,-333.0,6
3225,-28.0,-241.0,-116.0,-97.0,167.0,99.0,-117.0,-923.0,-327.0,6
3226,-26.0,-240.0,-117.0,-59.0,183.0,95.0,-111.0,-915.0,-319.0,6
3227,-26.0,-235.0,-116.0,-27.0,191.0,92.0,-116.0,-902.0,-317.0,6
3228,-27.0,-234.0,-113.0,-7.0,187.0,91.0,-104.0,-893.0,-319.0,6
3229,-25.0,-228.0,-112.0,6.0,179.0,89.0,-92.0,-892.0,-324.0,6
3230,-23.0,-229.0,-119.0,7.0,170.0,85.0,-93.0,-881.0,-327.0,6
3231,-25.0,-229.0,-119.0,-2.0,161.0,81.0,-94.0,-886.0,-333.0,6
3232,-22.0,-231.0,-120.0,-16.0,148.0,74.0,-94.0,-898.0,-342.0,6
