,acc1_x,acc1_y,acc1_z,gyro_x,gyro_y,gyro_z,acc2_x,acc2_y,acc2_z,label
108,-19.0,-228.0,-66.0,26.0,-110.0,-101.0,-67.0,-936.0,-260.0,5
109,-12.0,-230.0,-64.0,-7.0,-103.0,-93.0,-47.0,-933.0,-254.0,5
110,-6.0,-228.0,-67.0,-33.0,-92.0,-85.0,-28.0,-922.0,-247.0,5
111,-2.0,-226.0,-59.0,-50.0,-74.0,-81.0,-6.0,-916.0,-234.0,5
112,3.0,-217.0,-57.0,-60.0,-51.0,-77.0,12.0,-914.0,-223.0,5
113,5.0,-220.0,-59.0,-66.0,-25.0,-73.0,25.0,-908.0,-216.0,5
114,11.0,-219.0,-58.0,-76.0,0.0,-70.0,39.0,-904.0,-205.0,5
115,14.0,-220.0,-58.0,-85.0,25.0,-72.0,59.0,-900.0,-210.0,5
116,24.0,-218.0,-58.0,-98.0,56.0,-73.0,91.0,-907.0,-224.0,5
117,28.0,-220.0,-59.0,-114.0,99.0,-77.0,97.0,-910.0,-216.0,5
118,30.0,-221.0,-57.0,-132.0,144.0,-85.0,105.0,-911.0,-215.0,5
119,28.0,-221.0,-59.0,-150.0,198.0,-94.0,117.0,-920.0,-220.0,5
120,35.0,-227.0,-60.0,-169.0,241.0,-103.0,139.0,-937.0,-226.0,5
121,40.0,-233.0,-64.0,-190.0,275.0,-111.0,149.0,-955.0,-242.0,5
122,39.0,-240.0,-68.0,-214.0,304.0,-122.0,148.0,-976.0,-256.0,5
123,39.0,-245.0,-62.0,-240.0,325.0,-129.0,149.0,-1000.0,-260.0,5
124,38.0,-253.0,-68.0,-256.0,341.0,-133.0,143.0,-1022.0,-269.0,5
125,40.0,-255.0,-69.0,-265.0,353.0,-139.0,152.0,-1048.0,-261.0,5
126,39.0,-260.0,-68.0,-263.0,368.0,-143.0,152.0,-1062.0,-258.0,5
127,42.0,-261.0,-64.0,-253.0,389.0,-147.0,156.0,-1077.0,-246.0,5
128,43.0,-265.0,-59.0,-237.0,410.0,-151.0,157.0,-1089.0,-222.0,5
129,41.0,-267.0,-50.0,-212.0,426.0,-157.0,160.0,-1102.0,-196.0,5
130,42.0,-270.0,-53.0,-180.0,436.0,-168.0,154.0,-1101.0,-179.0,5
131,45.0,-271.0,-43.0,-144.0,440.0,-182.0,159.0,-1111.0,-166.0,5
132,34.0,-272.0,-41.0,-122.0,436.0,-194.0,149.0,-1115.0,-151.0,5
133,32.0,-274.0,-35.0,-108.0,420.0,-199.0,132.0,-1112.0,-136.0,5
134,34.0,-275.0,-33.0,-90.0,395.0,-206.0,134.0,-1119.0,-125.0,5
135,36.0,-276.0,-32.0,-65.0,376.0,-216.0,130.0,-1134.0,-126.0,5
136,24.0,-281.0,-29.0,-53.0,362.0,-220.0,91.0,-1148.0,-115.0,5
137,17.0,-283.0,-31.0,-38.0,346.0,-223.0,65.0,-1151.0,-112.0,5
138,15.0,-287.0,-28.0,-15.0,338.0,-231.0,58.0,-1159.0,-120.0,5
139,11.0,-288.0,-32.0,11.0,341.0,-247.0,37.0,-1165.0,-119.0,5
140,3.0,-288.0,-27.0,34.0,348.0,-266.0,12.0,-1166.0,-106.0,5
141,5.0,-285.0,-33.0,59.0,357.0,-283.0,8.0,-1170.0,-101.0,5
142,2.0,-291.0,-28.0,78.0,363.0,-307.0,6.0,-1176.0,-107.0,5
143,-1.0,-288.0,-31.0,91.0,366.0,-332.0,-2.0,-1164.0,-106.0,5
144,-3.0,-286.0,-29.0,98.0,369.0,-350.0,-14.0,-1158.0,-95.0,5
145,-9.0,-278.0,-28.0,98.0,366.0,-365.0,-28.0,-1151.0,-95.0,5
146,-9.0,-276.0,-26.0,100.0,351.0,-377.0,-31.0,-1130.0,-91.0,5
147,-4.0,-275.0,-29.0,100.0,329.0,-386.0,-24.0,-1116.0,-107.0,5
148,-6.0,-269.0,-34.0,96.0,305.0,-391.0,-19.0,-1104.0,-116.0,5
149,-10.0,-266.0,-33.0,82.0,285.0,-391.0,-41.0,-1077.0,-127.0,5
150,-15.0,-258.0,-30.0,77.0,271.0,-379.0,-51.0,-1059.0,-122.0,5
151,-10.0,-256.0,-34.0,83.0,259.0,-364.0,-57.0,-1047.0,-128.0,5
152,-8.0,-250.0,-33.0,95.0,246.0,-365.0,-42.0,-1024.0,-127.0,5
153,-5.0,-249.0,-28.0,114.0,234.0,-374.0,-27.0,-1007.0,-122.0,5
154,-3.0,-250.0,-31.0,134.0,218.0,-381.0,-8.0,-1009.0,-124.0,5
155,0.0,-247.0,-38.0,140.0,204.0,-376.0,-13.0,-1001.0,-120.0,5
156,-4.0,-247.0,-27.0,133.0,181.0,-351.0,-16.0,-1002.0,-110.0,5
157,-17.0,-243.0,-21.0,118.0,140.0,-317.0,-67.0,-997.0,-86.0,5
158,-27.0,-246.0,-18.0,117.0,81.0,-289.0,-110.0,-990.0,-69.0,5
159,-19.0,-244.0,-23.0,140.0,16.0,-279.0,-83.0,-987.0,-91.0,5
160,-6.0,-241.0,-41.0,149.0,-38.0,-294.0,-20.0,-992.0,-139.0,5
161,6.0,-238.0,-49.0,104.0,-59.0,-324.0,13.0,-983.0,-170.0,5
162,21.0,-232.0,-56.0,28.0,-50.0,-340.0,79.0,-959.0,-215.0,5
163,20.0,-221.0,-63.0,-64.0,-28.0,-353.0,83.0,-907.0,-227.0,5
164,24.0,-218.0,-56.0,-104.0,-1.0,-356.0,81.0,-880.0,-200.0,5
165,23.0,-212.0,-55.0,-88.0,27.0,-351.0,90.0,-882.0,-213.0,5
166,36.0,-213.0,-54.0,-83.0,38.0,-342.0,128.0,-868.0,-237.0,5
167,27.0,-207.0,-52.0,-108.0,29.0,-342.0,103.0,-847.0,-206.0,5
168,23.0,-203.0,-47.0,-125.0,14.0,-333.0,99.0,-829.0,-180.0,5
169,28.0,-207.0,-43.0,-123.0,0.0,-316.0,98.0,-836.0,-163.0,5
170,29.0,-206.0,-47.0,-135.0,-24.0,-289.0,118.0,-843.0,-181.0,5
171,23.0,-202.0,-49.0,-175.0,-64.0,-270.0,96.0,-839.0,-175.0,5
172,24.0,-207.0,-50.0,-216.0,-95.0,-255.0,98.0,-847.0,-184.0,5
173,20.0,-213.0,-50.0,-253.0,-111.0,-246.0,86.0,-866.0,-185.0,5
174,23.0,-219.0,-56.0,-279.0,-119.0,-245.0,90.0,-888.0,-197.0,5
175,24.0,-228.0,-53.0,-301.0,-125.0,-254.0,81.0,-919.0,-206.0,5
176,19.0,-229.0,-57.0,-316.0,-125.0,-260.0,75.0,-944.0,-216.0,5
177,28.0,-240.0,-68.0,-328.0,-121.0,-266.0,110.0,-980.0,-237.0,5
178,21.0,-243.0,-63.0,-355.0,-117.0,-284.0,88.0,-993.0,-235.0,5
179,23.0,-251.0,-61.0,-374.0,-107.0,-285.0,87.0,-1014.0,-220.0,5
180,21.0,-256.0,-59.0,-366.0,-103.0,-286.0,79.0,-1033.0,-207.0,5
181,16.0,-256.0,-56.0,-331.0,-100.0,-281.0,66.0,-1051.0,-213.0,5
182,13.0,-255.0,-51.0,-281.0,-95.0,-272.0,47.0,-1032.0,-196.0,5
183,12.0,-252.0,-52.0,-211.0,-98.0,-257.0,42.0,-1016.0,-186.0,5
184,21.0,-248.0,-54.0,-136.0,-104.0,-244.0,69.0,-1004.0,-202.0,5
185,30.0,-246.0,-56.0,-79.0,-103.0,-237.0,104.0,-995.0,-209.0,5
186,35.0,-243.0,-58.0,-52.0,-92.0,-234.0,118.0,-975.0,-218.0,5
187,31.0,-233.0,-51.0,-54.0,-76.0,-226.0,123.0,-966.0,-218.0,5
188,34.0,-234.0,-61.0,-67.0,-58.0,-218.0,136.0,-950.0,-217.0,5
189,38.0,-231.0,-56.0,-82.0,-41.0,-212.0,147.0,-943.0,-205.0,5
190,37.0,-230.0,-51.0,-93.0,-23.0,-209.0,145.0,-936.0,-199.0,5
191,40.0,-227.0,-55.0,-101.0,-13.0,-199.0,155.0,-929.0,-205.0,5
192,47.0,-226.0,-55.0,-106.0,-3.0,-189.0,168.0,-929.0,-203.0,5
193,46.0,-224.0,-54.0,-112.0,6.0,-181.0,172.0,-919.0,-214.0,5
194,45.0,-222.0,-60.0,-115.0,18.0,-168.0,176.0,-912.0,-215.0,5
195,50.0,-222.0,-58.0,-122.0,29.0,-157.0,185.0,-912.0,-230.0,5
196,47.0,-220.0,-59.0,-130.0,40.0,-147.0,183.0,-907.0,-239.0,5
197,49.0,-220.0,-62.0,-139.0,51.0,-137.0,175.0,-909.0,-240.0,5
198,47.0,-224.0,-65.0,-148.0,61.0,-127.0,180.0,-914.0,-240.0,5
199,46.0,-231.0,-66.0,-155.0,65.0,-117.0,173.0,-918.0,-240.0,5
200,48.0,-227.0,-64.0,-161.0,69.0,-108.0,168.0,-925.0,-235.0,5
201,39.0,-227.0,-62.0,-168.0,73.0,-97.0,158.0,-925.0,-232.0,5
202,37.0,-228.0,-60.0,-171.0,77.0,-79.0,146.0,-939.0,-220.0,5
203,36.0,-236.0,-56.0,-166.0,76.0,-63.0,134.0,-940.0,-210.0,5
204,34.0,-236.0,-54.0,-157.0,73.0,-46.0,118.0,-951.0,-200.0,5
205,29.0,-233.0,-50.0,-145.0,68.0,-29.0,116.0,-965.0,-186.0,5
206,26.0,-238.0,-51.0,-131.0,60.0,-15.0,103.0,-969.0,-170.0,5
207,21.0,-238.0,-48.0,-113.0,50.0,0.0,98.0,-963.0,-170.0,5
208,22.0,-237.0,-48.0,-91.0,37.0,16.0,89.0,-952.0,-163.0,5
209,21.0,-236.0,-43.0,-69.0,23.0,32.0,88.0,-954.0,-170.0,5
210,24.0,-235.0,-41.0,-53.0,9.0,48.0,91.0,-955.0,-169.0,5
211,25.0,-232.0,-42.0,-42.0,-7.0,60.0,101.0,-945.0,-166.0,5
212,27.0,-233.0,-45.0,-37.0,-27.0,72.0,106.0,-943.0,-174.0,5
213,30.0,-232.0,-47.0,-35.0,-48.0,83.0,107.0,-940.0,-167.0,5
214,29.0,-233.0,-46.0,-36.0,-65.0,93.0,108.0,-943.0,-155.0,5
215,30.0,-233.0,-42.0,-37.0,-79.0,100.0,110.0,-946.0,-151.0,5
216,27.0,-233.0,-39.0,-38.0,-92.0,103.0,108.0,-948.0,-145.0,5
217,25.0,-235.0,-39.0,-37.0,-101.0,107.0,110.0,-951.0,-149.0,5
218,26.0,-237.0,-42.0,-33.0,-109.0,107.0,99.0,-961.0,-148.0,5
219,25.0,-237.0,-44.0,-27.0,-115.0,105.0,98.0,-964.0,-154.0,5
220,27.0,-233.0,-44.0,-18.0,-123.0,102.0,90.0,-971.0,-162.0,5
221,23.0,-236.0,-46.0,-8.0,-135.0,98.0,87.0,-967.0,-171.0,5
222,23.0,-234.0,-51.0,3.0,-155.0,91.0,93.0,-958.0,-179.0,5
223,20.0,-234.0,-47.0,17.0,-177.0,90.0,82.0,-962.0,-179.0,5
224,21.0,-237.0,-53.0,32.0,-198.0,90.0,81.0,-957.0,-189.0,5
225,20.0,-237.0,-50.0,45.0,-219.0,92.0,82.0,-953.0,-187.0,5
226,17.0,-232.0,-55.0,55.0,-239.0,94.0,81.0,-950.0,-192.0,5
227,23.0,-233.0,-53.0,60.0,-260.0,98.0,87.0,-952.0,-194.0,5
228,24.0,-237.0,-52.0,61.0,-278.0,98.0,90.0,-957.0,-182.0,5
229,21.0,-239.0,-43.0,62.0,-300.0,93.0,89.0,-965.0,-176.0,5
230,22.0,-240.0,-44.0,60.0,-323.0,83.0,96.0,-978.0,-169.0,5
231,24.0,-248.0,-44.0,56.0,-347.0,68.0,99.0,-994.0,-172.0,5
232,24.0,-247.0,-48.0,50.0,-376.0,53.0,99.0,-1010.0,-175.0,5
233,24.0,-254.0,-44.0,43.0,-406.0,37.0,102.0,-1032.0,-174.0,5
234,26.0,-258.0,-47.0,41.0,-437.0,18.0,100.0,-1053.0,-172.0,5
235,28.0,-261.0,-49.0,50.0,-465.0,1.0,104.0,-1069.0,-176.0,5
236,31.0,-264.0,-53.0,65.0,-486.0,-19.0,112.0,-1075.0,-184.0,5
237,26.0,-262.0,-55.0,80.0,-507.0,-41.0,108.0,-1074.0,-207.0,5
238,26.0,-264.0,-59.0,89.0,-527.0,-60.0,108.0,-1074.0,-224.0,5
239,31.0,-262.0,-65.0,91.0,-551.0,-75.0,112.0,-1068.0,-246.0,5
240,28.0,-258.0,-71.0,87.0,-573.0,-83.0,115.0,-1059.0,-265.0,5
241,37.0,-260.0,-71.0,74.0,-585.0,-87.0,120.0,-1060.0,-280.0,5
242,29.0,-259.0,-76.0,55.0,-589.0,-84.0,129.0,-1052.0,-298.0,5
243,37.0,-256.0,-83.0,24.0,-584.0,-82.0,128.0,-1055.0,-327.0,5
244,33.0,-257.0,-88.0,-18.0,-569.0,-83.0,130.0,-1054.0,-350.0,5
245,35.0,-258.0,-96.0,-72.0,-540.0,-85.0,126.0,-1066.0,-378.0,5
246,35.0,-264.0,-104.0,-140.0,-499.0,-94.0,118.0,-1086.0,-397.0,5
247,30.0,-271.0,-104.0,-221.0,-453.0,-112.0,120.0,-1114.0,-406.0,5
248,34.0,-285.0,-102.0,-311.0,-406.0,-136.0,121.0,-1154.0,-400.0,5
249,35.0,-299.0,-96.0,-399.0,-367.0,-173.0,138.0,-1220.0,-388.0,5
250,50.0,-320.0,-90.0,-477.0,-326.0,-223.0,171.0,-1299.0,-355.0,5
251,56.0,-338.0,-84.0,-534.0,-278.0,-284.0,205.0,-1365.0,-316.0,5
252,61.0,-350.0,-77.0,-574.0,-211.0,-347.0,235.0,-1425.0,-304.0,5
253,65.0,-361.0,-75.0,-604.0,-128.0,-404.0,251.0,-1473.0,-319.0,5
254,64.0,-375.0,-91.0,-628.0,-38.0,-452.0,253.0,-1521.0,-365.0,5
255,58.0,-385.0,-107.0,-650.0,45.0,-492.0,232.0,-1570.0,-409.0,5
256,54.0,-387.0,-117.0,-660.0,115.0,-527.0,205.0,-1577.0,-457.0,5
257,49.0,-386.0,-131.0,-648.0,166.0,-553.0,193.0,-1578.0,-507.0,5
258,49.0,-387.0,-135.0,-615.0,197.0,-556.0,187.0,-1562.0,-532.0,5
259,46.0,-380.0,-134.0,-559.0,206.0,-525.0,187.0,-1536.0,-534.0,5
260,43.0,-365.0,-133.0,-490.0,192.0,-440.0,177.0,-1486.0,-528.0,5
261,42.0,-345.0,-137.0,-420.0,160.0,-329.0,181.0,-1425.0,-529.0,5
262,48.0,-336.0,-136.0,-366.0,111.0,-198.0,184.0,-1365.0,-556.0,5
263,44.0,-314.0,-141.0,-347.0,37.0,-77.0,196.0,-1308.0,-570.0,5
264,50.0,-305.0,-142.0,-364.0,-27.0,36.0,198.0,-1246.0,-571.0,5
265,47.0,-298.0,-145.0,-409.0,-79.0,146.0,188.0,-1208.0,-585.0,5
266,47.0,-288.0,-147.0,-458.0,-112.0,246.0,188.0,-1175.0,-582.0,5
267,50.0,-281.0,-145.0,-519.0,-128.0,335.0,189.0,-1153.0,-585.0,5
268,43.0,-277.0,-146.0,-568.0,-134.0,409.0,174.0,-1143.0,-583.0,5
269,41.0,-276.0,-144.0,-607.0,-133.0,467.0,160.0,-1127.0,-570.0,5
270,42.0,-278.0,-141.0,-626.0,-123.0,509.0,155.0,-1124.0,-559.0,5
271,36.0,-279.0,-135.0,-630.0,-112.0,542.0,152.0,-1130.0,-549.0,5
272,37.0,-279.0,-137.0,-624.0,-112.0,566.0,151.0,-1127.0,-549.0,5
273,35.0,-280.0,-137.0,-608.0,-124.0,584.0,143.0,-1124.0,-551.0,5
274,31.0,-277.0,-135.0,-591.0,-137.0,606.0,130.0,-1115.0,-548.0,5
275,28.0,-271.0,-137.0,-570.0,-150.0,622.0,123.0,-1099.0,-544.0,5
276,22.0,-267.0,-132.0,-544.0,-166.0,639.0,109.0,-1087.0,-534.0,5
277,22.0,-264.0,-134.0,-513.0,-180.0,662.0,90.0,-1064.0,-535.0,5
278,14.0,-255.0,-134.0,-472.0,-192.0,680.0,73.0,-1042.0,-524.0,5
279,15.0,-254.0,-132.0,-424.0,-202.0,694.0,64.0,-1013.0,-522.0,5
280,11.0,-244.0,-130.0,-375.0,-210.0,705.0,58.0,-991.0,-512.0,5
281,13.0,-241.0,-132.0,-318.0,-210.0,706.0,55.0,-969.0,-499.0,5
282,16.0,-234.0,-124.0,-246.0,-197.0,691.0,58.0,-942.0,-486.0,5
283,17.0,-227.0,-122.0,-167.0,-165.0,666.0,66.0,-926.0,-482.0,5
284,19.0,-223.0,-127.0,-88.0,-127.0,643.0,71.0,-902.0,-490.0,5
285,18.0,-215.0,-129.0,-23.0,-88.0,613.0,86.0,-875.0,-501.0,5
286,24.0,-209.0,-121.0,28.0,-55.0,582.0,90.0,-837.0,-498.0,5
287,24.0,-201.0,-125.0,68.0,-30.0,550.0,96.0,-814.0,-486.0,5
288,26.0,-195.0,-120.0,98.0,-5.0,519.0,103.0,-793.0,-484.0,5
289,27.0,-192.0,-120.0,122.0,24.0,493.0,103.0,-778.0,-473.0,5
290,29.0,-190.0,-111.0,147.0,62.0,470.0,109.0,-763.0,-456.0,5
291,24.0,-185.0,-109.0,173.0,107.0,445.0,97.0,-754.0,-449.0,5
292,23.0,-185.0,-108.0,198.0,160.0,427.0,93.0,-740.0,-433.0,5
293,19.0,-184.0,-106.0,225.0,210.0,414.0,83.0,-736.0,-422.0,5
294,18.0,-182.0,-106.0,247.0,257.0,403.0,81.0,-730.0,-415.0,5
295,22.0,-178.0,-107.0,257.0,298.0,389.0,78.0,-737.0,-410.0,5
296,12.0,-178.0,-107.0,252.0,329.0,379.0,76.0,-733.0,-414.0,5
297,20.0,-180.0,-107.0,236.0,357.0,364.0,75.0,-730.0,-414.0,5
298,17.0,-182.0,-105.0,209.0,380.0,353.0,67.0,-740.0,-420.0,5
299,14.0,-181.0,-104.0,170.0,404.0,341.0,62.0,-744.0,-405.0,5
300,12.0,-185.0,-103.0,136.0,419.0,334.0,45.0,-759.0,-403.0,5
301,9.0,-192.0,-104.0,105.0,433.0,331.0,33.0,-777.0,-404.0,5
302,2.0,-196.0,-103.0,79.0,445.0,329.0,18.0,-796.0,-405.0,5
303,-3.0,-201.0,-97.0,60.0,447.0,327.0,6.0,-824.0,-401.0,5
304,-4.0,-203.0,-101.0,50.0,449.0,330.0,-8.0,-846.0,-381.0,5
305,-6.0,-217.0,-98.0,50.0,446.0,334.0,-27.0,-870.0,-386.0,5
306,-12.0,-218.0,-98.0,62.0,440.0,338.0,-52.0,-896.0,-393.0,5
307,-18.0,-222.0,-98.0,80.0,429.0,345.0,-58.0,-907.0,-397.0,5
308,-20.0,-223.0,-104.0,108.0,412.0,347.0,-68.0,-918.0,-403.0,5
309,-24.0,-225.0,-109.0,138.0,390.0,344.0,-79.0,-915.0,-420.0,5
310,-29.0,-224.0,-105.0,170.0,363.0,342.0,-97.0,-915.0,-432.0,5
311,-34.0,-221.0,-109.0,200.0,331.0,340.0,-115.0,-911.0,-439.0,5
312,-37.0,-216.0,-113.0,228.0,297.0,338.0,-119.0,-897.0,-448.0,5
313,-37.0,-214.0,-114.0,245.0,255.0,331.0,-126.0,-878.0,-450.0,5
314,-37.0,-210.0,-116.0,256.0,210.0,326.0,-132.0,-867.0,-454.0,5
315,-39.0,-205.0,-118.0,261.0,162.0,318.0,-138.0,-848.0,-452.0,5
316,-42.0,-205.0,-109.0,269.0,113.0,313.0,-143.0,-836.0,-443.0,5
317,-43.0,-197.0,-110.0,279.0,64.0,308.0,-143.0,-822.0,-436.0,5
318,-40.0,-196.0,-113.0,289.0,18.0,303.0,-142.0,-813.0,-425.0,5
319,-37.0,-202.0,-108.0,296.0,-21.0,297.0,-144.0,-807.0,-414.0,5
320,-39.0,-200.0,-102.0,303.0,-54.0,296.0,-160.0,-813.0,-410.0,5
321,-42.0,-199.0,-98.0,312.0,-84.0,302.0,-156.0,-808.0,-392.0,5
322,-45.0,-195.0,-95.0,323.0,-110.0,307.0,-165.0,-806.0,-393.0,5
323,-44.0,-193.0,-96.0,329.0,-134.0,311.0,-162.0,-803.0,-379.0,5
324,-40.0,-194.0,-89.0,336.0,-152.0,311.0,-154.0,-793.0,-374.0,5
325,-36.0,-194.0,-91.0,345.0,-168.0,313.0,-150.0,-794.0,-378.0,5
326,-36.0,-193.0,-92.0,347.0,-178.0,316.0,-137.0,-787.0,-376.0,5
327,-34.0,-191.0,-93.0,342.0,-190.0,316.0,-119.0,-783.0,-382.0,5
328,-25.0,-195.0,-99.0,327.0,-206.0,315.0,-115.0,-775.0,-379.0,5
329,-29.0,-191.0,-97.0,305.0,-223.0,311.0,-108.0,-772.0,-381.0,5
330,-27.0,-186.0,-95.0,275.0,-238.0,308.0,-103.0,-769.0,-382.0,5
331,-26.0,-183.0,-95.0,238.0,-251.0,307.0,-99.0,-765.0,-379.0,5
332,-23.0,-187.0,-96.0,202.0,-263.0,303.0,-102.0,-757.0,-371.0,5
333,-25.0,-186.0,-90.0,168.0,-270.0,303.0,-96.0,-760.0,-368.0,5
334,-22.0,-189.0,-93.0,135.0,-271.0,301.0,-94.0,-766.0,-371.0,5
335,-24.0,-184.0,-91.0,110.0,-266.0,298.0,-84.0,-762.0,-359.0,5
336,-23.0,-183.0,-87.0,92.0,-259.0,292.0,-90.0,-758.0,-359.0,5
337,-20.0,-186.0,-86.0,81.0,-249.0,285.0,-78.0,-760.0,-352.0,5
338,-21.0,-184.0,-86.0,65.0,-239.0,281.0,-76.0,-767.0,-352.0,5
339,-14.0,-190.0,-83.0,46.0,-232.0,278.0,-58.0,-760.0,-342.0,5
340,-15.0,-186.0,-84.0,35.0,-225.0,273.0,-51.0,-765.0,-338.0,5
341,-15.0,-186.0,-83.0,31.0,-215.0,268.0,-50.0,-770.0,-337.0,5
342,-13.0,-191.0,-83.0,31.0,-200.0,268.0,-53.0,-771.0,-335.0,5
343,-14.0,-190.0,-86.0,33.0,-187.0,266.0,-59.0,-770.0,-341.0,5
344,-13.0,-188.0,-87.0,37.0,-172.0,261.0,-49.0,-767.0,-349.0,5
345,-10.0,-192.0,-90.0,41.0,-154.0,251.0,-55.0,-771.0,-356.0,5
346,-14.0,-187.0,-91.0,40.0,-136.0,239.0,-58.0,-768.0,-366.0,5
347,-17.0,-188.0,-95.0,39.0,-116.0,232.0,-62.0,-763.0,-374.0,5
348,-16.0,-187.0,-92.0,35.0,-93.0,228.0,-55.0,-755.0,-383.0,5
349,-14.0,-184.0,-100.0,31.0,-73.0,221.0,-63.0,-744.0,-386.0,5
350,-18.0,-183.0,-94.0,25.0,-55.0,210.0,-72.0,-747.0,-394.0,5
351,-20.0,-185.0,-97.0,17.0,-40.0,200.0,-78.0,-749.0,-399.0,5
352,-22.0,-187.0,-100.0,12.0,-23.0,196.0,-80.0,-761.0,-398.0,5
353,-25.0,-191.0,-99.0,10.0,-8.0,189.0,-97.0,-767.0,-390.0,5
354,-28.0,-191.0,-97.0,16.0,4.0,179.0,-109.0,-770.0,-377.0,5
355,-31.0,-190.0,-95.0,28.0,11.0,170.0,-124.0,-772.0,-378.0,5
356,-34.0,-193.0,-89.0,48.0,13.0,159.0,-129.0,-789.0,-368.0,5
357,-35.0,-195.0,-86.0,73.0,10.0,150.0,-134.0,-790.0,-356.0,5
358,-39.0,-196.0,-85.0,104.0,7.0,138.0,-131.0,-795.0,-338.0,5
359,-34.0,-199.0,-84.0,137.0,3.0,124.0,-125.0,-804.0,-342.0,5
360,-37.0,-197.0,-82.0,163.0,4.0,110.0,-138.0,-808.0,-327.0,5
361,-35.0,-199.0,-85.0,185.0,6.0,97.0,-143.0,-814.0,-324.0,5
362,-41.0,-203.0,-76.0,206.0,2.0,83.0,-152.0,-821.0,-310.0,5
363,-41.0,-207.0,-73.0,224.0,-11.0,68.0,-159.0,-831.0,-287.0,5
364,-39.0,-205.0,-71.0,244.0,-27.0,51.0,-159.0,-837.0,-280.0,5
365,-43.0,-210.0,-70.0,264.0,-46.0,32.0,-159.0,-845.0,-277.0,5
366,-41.0,-209.0,-70.0,281.0,-60.0,18.0,-171.0,-853.0,-272.0,5
367,-47.0,-211.0,-73.0,303.0,-72.0,4.0,-179.0,-855.0,-268.0,5
368,-51.0,-210.0,-70.0,326.0,-85.0,-10.0,-186.0,-862.0,-263.0,5
369,-47.0,-209.0,-62.0,350.0,-97.0,-28.0,-187.0,-869.0,-248.0,5
370,-43.0,-211.0,-55.0,375.0,-104.0,-52.0,-179.0,-866.0,-239.0,5
371,-46.0,-213.0,-58.0,404.0,-110.0,-72.0,-178.0,-872.0,-219.0,5
372,-44.0,-218.0,-58.0,434.0,-113.0,-94.0,-167.0,-882.0,-210.0,5
373,-41.0,-217.0,-54.0,462.0,-115.0,-118.0,-164.0,-888.0,-204.0,5
374,-42.0,-213.0,-53.0,486.0,-113.0,-143.0,-165.0,-893.0,-201.0,5
375,-39.0,-217.0,-53.0,505.0,-110.0,-170.0,-156.0,-890.0,-201.0,5
376,-37.0,-214.0,-51.0,519.0,-106.0,-194.0,-141.0,-885.0,-204.0,5
377,-30.0,-214.0,-55.0,526.0,-105.0,-219.0,-124.0,-880.0,-209.0,5
378,-31.0,-209.0,-57.0,522.0,-100.0,-238.0,-116.0,-863.0,-212.0,5
379,-25.0,-210.0,-57.0,507.0,-95.0,-255.0,-109.0,-845.0,-220.0,5
380,-25.0,-202.0,-61.0,478.0,-87.0,-268.0,-100.0,-833.0,-226.0,5
381,-23.0,-200.0,-59.0,437.0,-75.0,-275.0,-100.0,-823.0,-223.0,5
382,-22.0,-200.0,-59.0,389.0,-61.0,-276.0,-91.0,-818.0,-221.0,5
383,-20.0,-196.0,-54.0,331.0,-46.0,-271.0,-84.0,-821.0,-219.0,5
384,-20.0,-197.0,-59.0,268.0,-34.0,-262.0,-78.0,-820.0,-223.0,5
385,-16.0,-202.0,-58.0,197.0,-25.0,-249.0,-67.0,-830.0,-235.0,5
386,-15.0,-205.0,-55.0,121.0,-21.0,-237.0,-56.0,-845.0,-221.0,5
387,-11.0,-214.0,-60.0,50.0,-19.0,-223.0,-43.0,-876.0,-223.0,5
388,-5.0,-218.0,-59.0,-10.0,-21.0,-210.0,-31.0,-895.0,-224.0,5
389,-4.0,-226.0,-60.0,-59.0,-18.0,-203.0,-21.0,-918.0,-230.0,5
390,-2.0,-230.0,-65.0,-100.0,-7.0,-194.0,-11.0,-939.0,-243.0,5
391,1.0,-236.0,-66.0,-129.0,14.0,-189.0,2.0,-972.0,-256.0,5
392,-2.0,-242.0,-69.0,-149.0,41.0,-183.0,-3.0,-992.0,-269.0,5
393,-3.0,-248.0,-75.0,-159.0,76.0,-182.0,-2.0,-1012.0,-281.0,5
394,-4.0,-258.0,-77.0,-164.0,111.0,-185.0,-5.0,-1041.0,-297.0,5
395,-5.0,-259.0,-80.0,-168.0,139.0,-192.0,-17.0,-1055.0,-315.0,5
396,-4.0,-263.0,-86.0,-167.0,165.0,-190.0,-35.0,-1069.0,-332.0,5
397,-11.0,-268.0,-82.0,-156.0,189.0,-184.0,-38.0,-1100.0,-337.0,5
398,-14.0,-275.0,-84.0,-137.0,206.0,-180.0,-57.0,-1113.0,-341.0,5
399,-18.0,-277.0,-84.0,-112.0,222.0,-171.0,-75.0,-1134.0,-331.0,5
400,-20.0,-283.0,-84.0,-79.0,236.0,-155.0,-95.0,-1146.0,-322.0,5
401,-25.0,-281.0,-85.0,-39.0,246.0,-138.0,-105.0,-1151.0,-335.0,5
402,-31.0,-283.0,-87.0,0.0,252.0,-119.0,-115.0,-1146.0,-338.0,5
403,-36.0,-280.0,-83.0,42.0,253.0,-98.0,-131.0,-1138.0,-338.0,5
404,-34.0,-279.0,-83.0,80.0,252.0,-74.0,-145.0,-1129.0,-341.0,5
405,-34.0,-276.0,-82.0,114.0,251.0,-45.0,-152.0,-1118.0,-349.0,5
406,-41.0,-272.0,-89.0,127.0,248.0,-14.0,-154.0,-1106.0,-356.0,5
407,-43.0,-266.0,-90.0,123.0,235.0,12.0,-154.0,-1096.0,-370.0,5
408,-43.0,-262.0,-103.0,105.0,214.0,41.0,-157.0,-1076.0,-393.0,5
409,-42.0,-261.0,-106.0,70.0,185.0,69.0,-147.0,-1065.0,-410.0,5
410,-41.0,-257.0,-107.0,25.0,154.0,95.0,-143.0,-1057.0,-438.0,5
411,-35.0,-259.0,-109.0,-30.0,124.0,119.0,-133.0,-1055.0,-444.0,5
412,-34.0,-256.0,-110.0,-90.0,104.0,145.0,-123.0,-1056.0,-449.0,5
413,-31.0,-262.0,-109.0,-143.0,91.0,173.0,-115.0,-1066.0,-435.0,5
414,-30.0,-266.0,-104.0,-191.0,91.0,203.0,-114.0,-1107.0,-420.0,5
415,-37.0,-280.0,-100.0,-237.0,96.0,239.0,-123.0,-1150.0,-389.0,5
416,-37.0,-294.0,-91.0,-281.0,106.0,283.0,-127.0,-1194.0,-367.0,5
417,-34.0,-307.0,-91.0,-329.0,107.0,327.0,-139.0,-1259.0,-362.0,5
418,-37.0,-319.0,-95.0,-383.0,90.0,370.0,-131.0,-1301.0,-369.0,5
419,-40.0,-326.0,-102.0,-444.0,54.0,427.0,-157.0,-1355.0,-396.0,5
420,-42.0,-345.0,-105.0,-507.0,7.0,469.0,-158.0,-1401.0,-424.0,5
421,-40.0,-352.0,-114.0,-564.0,-45.0,510.0,-160.0,-1427.0,-445.0,5
422,-39.0,-357.0,-123.0,-612.0,-109.0,545.0,-129.0,-1462.0,-478.0,5
423,-30.0,-367.0,-126.0,-649.0,-172.0,586.0,-112.0,-1482.0,-496.0,5
424,-35.0,-363.0,-128.0,-668.0,-221.0,622.0,-118.0,-1477.0,-511.0,5
425,-32.0,-358.0,-132.0,-660.0,-259.0,611.0,-126.0,-1448.0,-525.0,5
426,-38.0,-346.0,-139.0,-626.0,-295.0,565.0,-140.0,-1390.0,-532.0,5
427,-42.0,-325.0,-141.0,-575.0,-316.0,493.0,-155.0,-1317.0,-568.0,5
428,-47.0,-307.0,-145.0,-528.0,-316.0,402.0,-190.0,-1234.0,-600.0,5
429,-60.0,-285.0,-156.0,-508.0,-296.0,309.0,-230.0,-1166.0,-621.0,5
430,-70.0,-272.0,-154.0,-516.0,-258.0,221.0,-278.0,-1113.0,-623.0,5
431,-80.0,-264.0,-150.0,-548.0,-211.0,142.0,-320.0,-1090.0,-620.0,5
432,-90.0,-262.0,-154.0,-591.0,-161.0,76.0,-344.0,-1081.0,-613.0,5
433,-93.0,-263.0,-149.0,-639.0,-118.0,19.0,-359.0,-1087.0,-603.0,5
434,-94.0,-271.0,-148.0,-682.0,-87.0,-25.0,-363.0,-1102.0,-602.0,5
435,-98.0,-276.0,-144.0,-728.0,-63.0,-62.0,-373.0,-1129.0,-604.0,5
436,-94.0,-287.0,-153.0,-773.0,-41.0,-89.0,-369.0,-1165.0,-605.0,5
437,-102.0,-294.0,-151.0,-813.0,-33.0,-121.0,-364.0,-1194.0,-613.0,5
438,-91.0,-298.0,-153.0,-832.0,-37.0,-156.0,-349.0,-1212.0,-620.0,5
439,-87.0,-300.0,-156.0,-829.0,-50.0,-199.0,-336.0,-1209.0,-635.0,5
440,-86.0,-295.0,-159.0,-808.0,-58.0,-252.0,-338.0,-1179.0,-646.0,5
441,-83.0,-284.0,-163.0,-776.0,-58.0,-294.0,-327.0,-1155.0,-650.0,5
442,-76.0,-273.0,-163.0,-732.0,-50.0,-323.0,-295.0,-1115.0,-649.0,5
443,-65.0,-264.0,-165.0,-678.0,-37.0,-346.0,-240.0,-1067.0,-667.0,5
444,-61.0,-247.0,-164.0,-621.0,-3.0,-361.0,-225.0,-1013.0,-659.0,5
445,-55.0,-236.0,-160.0,-559.0,36.0,-367.0,-204.0,-950.0,-649.0,5
446,-49.0,-215.0,-155.0,-499.0,62.0,-360.0,-179.0,-885.0,-636.0,5
447,-39.0,-212.0,-149.0,-441.0,81.0,-346.0,-138.0,-820.0,-619.0,5
448,-33.0,-187.0,-150.0,-392.0,89.0,-328.0,-121.0,-750.0,-614.0,5
449,-19.0,-174.0,-144.0,-352.0,91.0,-306.0,-80.0,-703.0,-594.0,5
450,-15.0,-165.0,-139.0,-319.0,88.0,-290.0,-58.0,-658.0,-578.0,5
451,-14.0,-154.0,-139.0,-287.0,83.0,-271.0,-38.0,-626.0,-576.0,5
452,-5.0,-149.0,-138.0,-257.0,84.0,-252.0,-14.0,-605.0,-568.0,5
453,-2.0,-144.0,-140.0,-226.0,85.0,-236.0,-1.0,-589.0,-575.0,5
454,0.0,-143.0,-140.0,-193.0,88.0,-229.0,16.0,-581.0,-577.0,5
455,1.0,-145.0,-142.0,-158.0,89.0,-226.0,21.0,-584.0,-576.0,5
456,7.0,-150.0,-143.0,-117.0,90.0,-226.0,36.0,-595.0,-574.0,5
457,10.0,-155.0,-140.0,-65.0,87.0,-227.0,49.0,-618.0,-566.0,5
458,11.0,-163.0,-135.0,-2.0,81.0,-230.0,61.0,-650.0,-539.0,5
459,12.0,-170.0,-126.0,74.0,70.0,-234.0,64.0,-681.0,-513.0,5
460,15.0,-179.0,-125.0,165.0,59.0,-231.0,54.0,-708.0,-501.0,5
461,14.0,-181.0,-117.0,263.0,53.0,-223.0,54.0,-729.0,-487.0,5
462,11.0,-188.0,-119.0,360.0,54.0,-213.0,47.0,-750.0,-466.0,5
463,11.0,-191.0,-116.0,446.0,66.0,-203.0,49.0,-763.0,-455.0,5
464,15.0,-193.0,-110.0,515.0,90.0,-192.0,49.0,-778.0,-434.0,5
465,10.0,-195.0,-108.0,563.0,120.0,-179.0,48.0,-791.0,-428.0,5
466,8.0,-196.0,-109.0,587.0,154.0,-164.0,39.0,-808.0,-422.0,5
467,4.0,-201.0,-108.0,583.0,190.0,-154.0,24.0,-824.0,-415.0,5
468,1.0,-199.0,-100.0,557.0,226.0,-142.0,16.0,-832.0,-404.0,5
469,7.0,-209.0,-106.0,517.0,242.0,-136.0,10.0,-844.0,-404.0,5
470,-4.0,-208.0,-103.0,462.0,250.0,-125.0,0.0,-865.0,-402.0,5
471,-2.0,-211.0,-100.0,388.0,244.0,-114.0,-12.0,-867.0,-404.0,5
472,-8.0,-216.0,-100.0,323.0,229.0,-104.0,-22.0,-886.0,-394.0,5
473,-9.0,-215.0,-98.0,265.0,203.0,-94.0,-25.0,-902.0,-389.0,5
474,-15.0,-217.0,-96.0,218.0,176.0,-86.0,-38.0,-903.0,-389.0,5
475,-16.0,-220.0,-99.0,187.0,149.0,-74.0,-46.0,-906.0,-390.0,5
476,-14.0,-225.0,-95.0,169.0,121.0,-67.0,-59.0,-917.0,-401.0,5
477,-17.0,-226.0,-103.0,160.0,95.0,-60.0,-65.0,-917.0,-404.0,5
478,-17.0,-225.0,-104.0,159.0,70.0,-57.0,-66.0,-918.0,-426.0,5
479,-20.0,-221.0,-106.0,160.0,47.0,-58.0,-67.0,-906.0,-434.0,5
480,-18.0,-220.0,-113.0,164.0,26.0,-63.0,-54.0,-896.0,-437.0,5
481,-14.0,-218.0,-109.0,170.0,11.0,-71.0,-51.0,-876.0,-442.0,5
482,-9.0,-213.0,-112.0,175.0,3.0,-75.0,-40.0,-868.0,-439.0,5
483,-12.0,-208.0,-108.0,178.0,-1.0,-86.0,-35.0,-853.0,-430.0,5
484,-9.0,-206.0,-108.0,184.0,1.0,-93.0,-30.0,-843.0,-428.0,5
485,-5.0,-203.0,-107.0,188.0,8.0,-98.0,-17.0,-831.0,-427.0,5
486,-3.0,-201.0,-113.0,187.0,17.0,-103.0,-9.0,-816.0,-444.0,5
487,-1.0,-202.0,-109.0,180.0,32.0,-111.0,-3.0,-816.0,-438.0,5
488,4.0,-198.0,-114.0,171.0,48.0,-114.0,4.0,-802.0,-443.0,5
489,0.0,-195.0,-109.0,160.0,59.0,-114.0,12.0,-798.0,-427.0,5
490,4.0,-196.0,-109.0,154.0,66.0,-113.0,21.0,-800.0,-425.0,5
491,8.0,-198.0,-105.0,149.0,73.0,-114.0,39.0,-799.0,-425.0,5
492,7.0,-199.0,-110.0,147.0,80.0,-118.0,41.0,-804.0,-425.0,5
493,4.0,-199.0,-109.0,144.0,81.0,-122.0,32.0,-807.0,-416.0,5
494,4.0,-196.0,-103.0,143.0,81.0,-125.0,32.0,-807.0,-431.0,5
495,4.0,-200.0,-109.0,139.0,76.0,-127.0,23.0,-810.0,-432.0,5
496,2.0,-200.0,-106.0,137.0,71.0,-131.0,12.0,-806.0,-432.0,5
497,-3.0,-197.0,-111.0,142.0,67.0,-138.0,7.0,-815.0,-433.0,5
498,-3.0,-200.0,-104.0,144.0,67.0,-145.0,-10.0,-813.0,-427.0,5
499,-1.0,-200.0,-112.0,148.0,70.0,-154.0,-3.0,-818.0,-428.0,5
500,-6.0,-199.0,-108.0,160.0,75.0,-169.0,-20.0,-808.0,-425.0,5
501,-6.0,-195.0,-107.0,172.0,84.0,-188.0,-22.0,-808.0,-426.0,5
502,-6.0,-199.0,-100.0,188.0,92.0,-205.0,-36.0,-801.0,-422.0,5
503,-11.0,-193.0,-107.0,206.0,93.0,-216.0,-38.0,-793.0,-422.0,5
504,-8.0,-192.0,-105.0,222.0,89.0,-231.0,-33.0,-781.0,-423.0,5
505,-11.0,-191.0,-106.0,230.0,86.0,-244.0,-30.0,-772.0,-420.0,5
506,-11.0,-183.0,-103.0,230.0,84.0,-248.0,-38.0,-756.0,-408.0,5
507,-8.0,-183.0,-99.0,227.0,79.0,-245.0,-34.0,-742.0,-404.0,5
508,-4.0,-178.0,-96.0,223.0,69.0,-243.0,-27.0,-741.0,-392.0,5
509,-6.0,-178.0,-97.0,217.0,53.0,-244.0,-29.0,-740.0,-391.0,5
510,-11.0,-181.0,-97.0,210.0,38.0,-242.0,-20.0,-744.0,-380.0,5
511,-4.0,-187.0,-93.0,199.0,24.0,-238.0,-18.0,-748.0,-374.0,5
512,-4.0,-189.0,-95.0,189.0,10.0,-239.0,-13.0,-756.0,-372.0,5
513,-4.0,-187.0,-95.0,181.0,-3.0,-242.0,-10.0,-769.0,-372.0,5
514,-3.0,-191.0,-93.0,174.0,-16.0,-253.0,-6.0,-775.0,-367.0,5
515,-4.0,-191.0,-93.0,164.0,-27.0,-266.0,-11.0,-773.0,-370.0,5
516,-2.0,-191.0,-95.0,152.0,-34.0,-275.0,-3.0,-778.0,-375.0,5
517,-3.0,-190.0,-98.0,141.0,-37.0,-272.0,-9.0,-781.0,-374.0,5
518,-3.0,-190.0,-96.0,134.0,-38.0,-273.0,-3.0,-777.0,-376.0,5
519,-3.0,-191.0,-95.0,128.0,-37.0,-280.0,-3.0,-778.0,-377.0,5
520,-2.0,-189.0,-98.0,123.0,-32.0,-283.0,5.0,-774.0,-379.0,5
521,3.0,-188.0,-95.0,118.0,-22.0,-288.0,10.0,-776.0,-387.0,5
522,3.0,-189.0,-100.0,113.0,-12.0,-300.0,18.0,-772.0,-392.0,5
523,2.0,-185.0,-104.0,105.0,-2.0,-310.0,38.0,-776.0,-396.0,5
524,11.0,-190.0,-99.0,97.0,6.0,-306.0,44.0,-773.0,-396.0,5
525,10.0,-194.0,-98.0,91.0,13.0,-302.0,50.0,-787.0,-398.0,5
526,13.0,-193.0,-100.0,87.0,12.0,-307.0,66.0,-800.0,-398.0,5
527,17.0,-197.0,-99.0,88.0,7.0,-316.0,74.0,-809.0,-400.0,5
528,15.0,-199.0,-103.0,88.0,3.0,-323.0,80.0,-816.0,-400.0,5
529,20.0,-201.0,-103.0,92.0,-4.0,-330.0,81.0,-837.0,-401.0,5
530,21.0,-207.0,-97.0,99.0,-10.0,-335.0,80.0,-853.0,-398.0,5
531,22.0,-213.0,-106.0,109.0,-17.0,-342.0,82.0,-864.0,-401.0,5
532,19.0,-212.0,-103.0,119.0,-21.0,-351.0,78.0,-876.0,-397.0,5
533,16.0,-212.0,-101.0,129.0,-24.0,-356.0,78.0,-885.0,-396.0,5
534,19.0,-219.0,-99.0,137.0,-27.0,-353.0,77.0,-894.0,-395.0,5
535,18.0,-218.0,-98.0,144.0,-25.0,-347.0,74.0,-895.0,-384.0,5
536,16.0,-220.0,-99.0,150.0,-21.0,-338.0,70.0,-903.0,-383.0,5
537,14.0,-220.0,-96.0,154.0,-17.0,-328.0,63.0,-905.0,-378.0,5
538,14.0,-221.0,-91.0,156.0,-8.0,-319.0,58.0,-900.0,-377.0,5
539,11.0,-220.0,-92.0,159.0,6.0,-304.0,54.0,-897.0,-369.0,5
540,8.0,-216.0,-93.0,159.0,18.0,-287.0,46.0,-890.0,-369.0,5
541,9.0,-216.0,-95.0,157.0,32.0,-272.0,48.0,-889.0,-358.0,5
542,11.0,-211.0,-93.0,148.0,44.0,-259.0,48.0,-875.0,-359.0,5
543,17.0,-214.0,-87.0,139.0,59.0,-247.0,55.0,-868.0,-361.0,5
544,13.0,-213.0,-92.0,131.0,80.0,-233.0,57.0,-867.0,-357.0,5
545,15.0,-214.0,-92.0,121.0,98.0,-217.0,68.0,-865.0,-341.0,5
546,19.0,-212.0,-81.0,115.0,113.0,-205.0,70.0,-868.0,-334.0,5
547,17.0,-211.0,-80.0,113.0,123.0,-191.0,82.0,-870.0,-326.0,5
548,22.0,-215.0,-84.0,111.0,129.0,-178.0,83.0,-887.0,-318.0,5
549,22.0,-218.0,-82.0,113.0,131.0,-166.0,85.0,-891.0,-317.0,5
550,21.0,-218.0,-77.0,119.0,134.0,-155.0,87.0,-894.0,-310.0,5
551,24.0,-222.0,-74.0,128.0,134.0,-141.0,90.0,-898.0,-313.0,5
552,25.0,-219.0,-82.0,136.0,133.0,-128.0,90.0,-901.0,-316.0,5
553,21.0,-218.0,-84.0,138.0,131.0,-111.0,89.0,-896.0,-321.0,5
554,22.0,-216.0,-79.0,137.0,127.0,-95.0,89.0,-888.0,-322.0,5
555,24.0,-213.0,-83.0,133.0,123.0,-76.0,90.0,-878.0,-323.0,5
556,18.0,-215.0,-88.0,124.0,125.0,-59.0,84.0,-879.0,-329.0,5
557,21.0,-216.0,-87.0,109.0,128.0,-41.0,83.0,-876.0,-335.0,5
558,19.0,-210.0,-84.0,88.0,132.0,-26.0,81.0,-863.0,-341.0,5
559,16.0,-212.0,-89.0,64.0,131.0,-14.0,71.0,-867.0,-347.0,5
560,17.0,-211.0,-91.0,37.0,129.0,-4.0,64.0,-866.0,-360.0,5
561,17.0,-211.0,-87.0,4.0,126.0,3.0,67.0,-867.0,-357.0,5
562,10.0,-214.0,-94.0,-28.0,120.0,11.0,51.0,-871.0,-366.0,5
563,9.0,-213.0,-98.0,-59.0,117.0,20.0,33.0,-874.0,-366.0,5
564,9.0,-218.0,-91.0,-87.0,113.0,27.0,37.0,-891.0,-370.0,5
565,5.0,-219.0,-98.0,-110.0,110.0,36.0,38.0,-896.0,-375.0,5
566,7.0,-222.0,-98.0,-124.0,102.0,42.0,39.0,-905.0,-386.0,5
567,7.0,-221.0,-96.0,-132.0,95.0,49.0,32.0,-906.0,-390.0,5
568,5.0,-224.0,-96.0,-142.0,90.0,54.0,40.0,-909.0,-379.0,5
569,7.0,-224.0,-95.0,-142.0,79.0,58.0,39.0,-912.0,-373.0,5
570,8.0,-223.0,-91.0,-130.0,65.0,62.0,36.0,-906.0,-366.0,5
571,12.0,-223.0,-89.0,-110.0,53.0,66.0,44.0,-908.0,-366.0,5
572,14.0,-219.0,-94.0,-85.0,41.0,69.0,62.0,-896.0,-365.0,5
573,19.0,-216.0,-95.0,-59.0,30.0,68.0,72.0,-888.0,-360.0,5
574,21.0,-213.0,-90.0,-40.0,16.0,66.0,84.0,-869.0,-368.0,5
575,24.0,-214.0,-93.0,-26.0,-2.0,58.0,97.0,-869.0,-365.0,5
576,24.0,-214.0,-91.0,-19.0,-24.0,50.0,104.0,-884.0,-360.0,5
577,24.0,-219.0,-89.0,-17.0,-49.0,38.0,102.0,-887.0,-348.0,5
578,22.0,-220.0,-84.0,-20.0,-78.0,27.0,106.0,-897.0,-333.0,5
579,24.0,-224.0,-82.0,-28.0,-112.0,14.0,93.0,-915.0,-320.0,5
580,18.0,-228.0,-78.0,-37.0,-145.0,2.0,74.0,-928.0,-309.0,5
581,16.0,-229.0,-80.0,-51.0,-175.0,-15.0,63.0,-938.0,-305.0,5
582,12.0,-233.0,-78.0,-63.0,-204.0,-26.0,47.0,-950.0,-304.0,5
583,3.0,-233.0,-77.0,-74.0,-226.0,-38.0,29.0,-952.0,-303.0,5
584,-1.0,-234.0,-80.0,-84.0,-241.0,-45.0,13.0,-954.0,-310.0,5
585,3.0,-239.0,-83.0,-97.0,-250.0,-49.0,-5.0,-957.0,-314.0,5
586,-5.0,-235.0,-81.0,-114.0,-251.0,-53.0,-24.0,-965.0,-321.0,5
587,-11.0,-234.0,-84.0,-141.0,-245.0,-61.0,-35.0,-972.0,-327.0,5
588,-14.0,-236.0,-90.0,-181.0,-234.0,-65.0,-52.0,-971.0,-349.0,5
589,-16.0,-241.0,-97.0,-228.0,-221.0,-71.0,-53.0,-981.0,-376.0,5
590,-15.0,-243.0,-102.0,-284.0,-203.0,-83.0,-50.0,-1008.0,-406.0,5
591,-9.0,-254.0,-113.0,-348.0,-180.0,-102.0,-35.0,-1044.0,-435.0,5
592,-5.0,-265.0,-117.0,-421.0,-150.0,-133.0,-28.0,-1090.0,-457.0,5
593,0.0,-281.0,-125.0,-496.0,-117.0,-176.0,-2.0,-1155.0,-488.0,5
594,6.0,-308.0,-126.0,-573.0,-81.0,-228.0,21.0,-1228.0,-494.0,5
595,9.0,-328.0,-126.0,-637.0,-38.0,-285.0,42.0,-1337.0,-493.0,5
596,17.0,-358.0,-124.0,-679.0,8.0,-362.0,54.0,-1429.0,-498.0,5
597,21.0,-384.0,-126.0,-691.0,63.0,-434.0,67.0,-1530.0,-500.0,5
598,19.0,-396.0,-130.0,-670.0,122.0,-502.0,71.0,-1586.0,-504.0,5
599,27.0,-399.0,-134.0,-617.0,191.0,-536.0,86.0,-1599.0,-529.0,5
600,24.0,-392.0,-138.0,-538.0,242.0,-539.0,107.0,-1584.0,-560.0,5
601,38.0,-388.0,-144.0,-445.0,284.0,-532.0,149.0,-1569.0,-583.0,5
602,45.0,-383.0,-150.0,-336.0,321.0,-515.0,177.0,-1539.0,-606.0,5
603,48.0,-379.0,-155.0,-260.0,347.0,-493.0,196.0,-1523.0,-624.0,5
604,48.0,-370.0,-157.0,-206.0,357.0,-445.0,192.0,-1496.0,-631.0,5
605,43.0,-356.0,-162.0,-164.0,349.0,-363.0,183.0,-1430.0,-652.0,5
606,44.0,-335.0,-166.0,-136.0,327.0,-235.0,188.0,-1361.0,-677.0,5
607,48.0,-316.0,-185.0,-131.0,302.0,-93.0,192.0,-1296.0,-732.0,5
608,50.0,-305.0,-188.0,-163.0,278.0,43.0,192.0,-1247.0,-751.0,5
609,55.0,-298.0,-193.0,-230.0,251.0,165.0,211.0,-1220.0,-770.0,5
610,51.0,-295.0,-200.0,-322.0,220.0,279.0,214.0,-1206.0,-775.0,5
611,51.0,-297.0,-189.0,-417.0,183.0,375.0,208.0,-1211.0,-766.0,5
612,46.0,-301.0,-187.0,-497.0,135.0,465.0,199.0,-1216.0,-745.0,5
613,38.0,-302.0,-180.0,-546.0,89.0,549.0,177.0,-1228.0,-729.0,5
614,38.0,-306.0,-177.0,-573.0,53.0,625.0,152.0,-1245.0,-726.0,5
615,28.0,-309.0,-179.0,-571.0,24.0,694.0,128.0,-1235.0,-731.0,5
616,23.0,-302.0,-181.0,-552.0,-2.0,754.0,109.0,-1222.0,-732.0,5
617,18.0,-297.0,-186.0,-529.0,-32.0,806.0,97.0,-1189.0,-749.0,5
618,15.0,-281.0,-186.0,-497.0,-69.0,839.0,78.0,-1155.0,-754.0,5
619,10.0,-275.0,-188.0,-467.0,-106.0,856.0,56.0,-1108.0,-754.0,5
620,7.0,-258.0,-191.0,-436.0,-136.0,857.0,38.0,-1056.0,-753.0,5
621,2.0,-252.0,-186.0,-416.0,-163.0,854.0,33.0,-1010.0,-743.0,5
622,1.0,-241.0,-178.0,-398.0,-192.0,844.0,23.0,-971.0,-734.0,5
623,1.0,-233.0,-178.0,-367.0,-214.0,823.0,15.0,-925.0,-724.0,5
624,-2.0,-221.0,-173.0,-322.0,-228.0,780.0,0.0,-890.0,-694.0,5
625,-5.0,-208.0,-167.0,-279.0,-232.0,736.0,-13.0,-850.0,-676.0,5
626,-4.0,-199.0,-163.0,-225.0,-228.0,693.0,-1.0,-806.0,-670.0,5
627,-5.0,-192.0,-165.0,-163.0,-217.0,631.0,-7.0,-775.0,-662.0,5
628,1.0,-189.0,-163.0,-113.0,-203.0,559.0,-6.0,-750.0,-664.0,5
629,-6.0,-181.0,-162.0,-81.0,-191.0,494.0,-17.0,-734.0,-645.0,5
630,-4.0,-180.0,-155.0,-53.0,-179.0,427.0,-22.0,-720.0,-629.0,5
631,-12.0,-177.0,-147.0,-24.0,-165.0,361.0,-35.0,-708.0,-604.0,5
632,-21.0,-176.0,-136.0,10.0,-151.0,302.0,-61.0,-708.0,-559.0,5
633,-24.0,-176.0,-127.0,56.0,-140.0,248.0,-78.0,-700.0,-516.0,5
634,-21.0,-174.0,-121.0,113.0,-125.0,201.0,-78.0,-694.0,-488.0,5
635,-21.0,-171.0,-119.0,169.0,-97.0,159.0,-86.0,-694.0,-478.0,5
636,-19.0,-167.0,-117.0,218.0,-59.0,131.0,-84.0,-685.0,-471.0,5
637,-19.0,-163.0,-118.0,251.0,-20.0,112.0,-81.0,-681.0,-475.0,5
638,-18.0,-162.0,-117.0,269.0,18.0,100.0,-63.0,-680.0,-473.0,5
639,-11.0,-166.0,-116.0,271.0,52.0,95.0,-39.0,-681.0,-457.0,5
640,-5.0,-167.0,-113.0,263.0,79.0,95.0,-26.0,-692.0,-457.0,5
641,-3.0,-176.0,-120.0,251.0,99.0,101.0,-9.0,-710.0,-463.0,5
642,-2.0,-175.0,-117.0,241.0,108.0,107.0,7.0,-720.0,-459.0,5
643,1.0,-179.0,-117.0,234.0,115.0,109.0,21.0,-742.0,-461.0,5
644,2.0,-188.0,-115.0,237.0,115.0,112.0,26.0,-768.0,-461.0,5
645,2.0,-192.0,-116.0,251.0,109.0,112.0,24.0,-788.0,-457.0,5
646,1.0,-198.0,-111.0,273.0,104.0,106.0,15.0,-808.0,-457.0,5
647,0.0,-203.0,-112.0,301.0,101.0,101.0,12.0,-822.0,-451.0,5
648,-2.0,-206.0,-113.0,334.0,95.0,100.0,-2.0,-833.0,-439.0,5
649,-4.0,-212.0,-110.0,368.0,92.0,98.0,-15.0,-837.0,-438.0,5
650,-7.0,-210.0,-109.0,402.0,88.0,96.0,-18.0,-845.0,-441.0,5
651,-10.0,-207.0,-112.0,437.0,92.0,100.0,-34.0,-848.0,-441.0,5
652,-12.0,-207.0,-112.0,465.0,101.0,101.0,-38.0,-851.0,-446.0,5
653,-10.0,-198.0,-112.0,486.0,113.0,99.0,-52.0,-839.0,-453.0,5
654,-15.0,-200.0,-118.0,501.0,125.0,99.0,-55.0,-817.0,-467.0,5
655,-12.0,-194.0,-119.0,504.0,140.0,97.0,-52.0,-807.0,-472.0,5
656,-13.0,-191.0,-125.0,499.0,154.0,90.0,-51.0,-786.0,-477.0,5
657,-14.0,-187.0,-121.0,486.0,166.0,89.0,-47.0,-768.0,-480.0,5
658,-14.0,-183.0,-123.0,467.0,172.0,88.0,-44.0,-754.0,-485.0,5
659,-12.0,-180.0,-123.0,448.0,175.0,89.0,-35.0,-745.0,-489.0,5
660,-8.0,-177.0,-120.0,430.0,170.0,90.0,-31.0,-711.0,-489.0,5
661,-9.0,-174.0,-120.0,414.0,167.0,94.0,-27.0,-710.0,-488.0,5
662,-13.0,-168.0,-117.0,400.0,163.0,96.0,-34.0,-695.0,-481.0,5
663,-12.0,-167.0,-119.0,394.0,156.0,99.0,-34.0,-674.0,-470.0,5
664,-7.0,-169.0,-120.0,402.0,142.0,105.0,-45.0,-675.0,-489.0,5
665,-11.0,-162.0,-120.0,404.0,140.0,111.0,-50.0,-652.0,-482.0,5
666,-19.0,-159.0,-122.0,404.0,139.0,117.0,-61.0,-651.0,-487.0,5
667,-20.0,-159.0,-118.0,399.0,137.0,122.0,-68.0,-650.0,-472.0,5
668,-23.0,-161.0,-118.0,397.0,136.0,127.0,-81.0,-659.0,-468.0,5
669,-27.0,-165.0,-111.0,393.0,129.0,129.0,-93.0,-665.0,-455.0,5
670,-28.0,-171.0,-109.0,394.0,125.0,129.0,-105.0,-685.0,-445.0,5
671,-32.0,-172.0,-108.0,404.0,121.0,133.0,-113.0,-701.0,-429.0,5
672,-35.0,-179.0,-108.0,425.0,112.0,136.0,-118.0,-725.0,-418.0,5
673,-32.0,-182.0,-108.0,456.0,97.0,138.0,-128.0,-744.0,-422.0,5
674,-37.0,-186.0,-106.0,483.0,77.0,136.0,-139.0,-756.0,-431.0,5
675,-38.0,-191.0,-110.0,503.0,54.0,134.0,-137.0,-770.0,-417.0,5
676,-35.0,-191.0,-104.0,526.0,29.0,135.0,-128.0,-780.0,-424.0,5
677,-33.0,-194.0,-108.0,549.0,4.0,134.0,-119.0,-786.0,-430.0,5
678,-29.0,-194.0,-105.0,564.0,-23.0,132.0,-112.0,-797.0,-433.0,5
679,-29.0,-200.0,-109.0,574.0,-53.0,130.0,-112.0,-799.0,-421.0,5
680,-27.0,-192.0,-111.0,581.0,-86.0,121.0,-100.0,-782.0,-447.0,5
681,-25.0,-191.0,-109.0,579.0,-103.0,125.0,-87.0,-788.0,-443.0,5
682,-24.0,-193.0,-104.0,567.0,-121.0,135.0,-87.0,-785.0,-433.0,5
683,-22.0,-195.0,-106.0,556.0,-135.0,139.0,-89.0,-786.0,-422.0,5
684,-25.0,-191.0,-100.0,556.0,-137.0,134.0,-86.0,-777.0,-389.0,5
685,-25.0,-191.0,-98.0,557.0,-160.0,127.0,-92.0,-779.0,-392.0,5
686,-19.0,-192.0,-100.0,558.0,-177.0,121.0,-91.0,-775.0,-380.0,5
687,-24.0,-188.0,-97.0,564.0,-194.0,120.0,-92.0,-770.0,-372.0,5
688,-29.0,-186.0,-89.0,569.0,-204.0,120.0,-98.0,-764.0,-365.0,5
689,-30.0,-183.0,-92.0,580.0,-209.0,121.0,-111.0,-753.0,-366.0,5
690,-28.0,-183.0,-94.0,584.0,-207.0,123.0,-112.0,-745.0,-363.0,5
691,-36.0,-180.0,-88.0,580.0,-203.0,126.0,-135.0,-740.0,-363.0,5
692,-37.0,-182.0,-85.0,572.0,-200.0,131.0,-143.0,-736.0,-358.0,5
693,-41.0,-180.0,-88.0,564.0,-201.0,135.0,-157.0,-731.0,-355.0,5
694,-37.0,-182.0,-91.0,555.0,-204.0,141.0,-140.0,-746.0,-354.0,5
695,-34.0,-186.0,-95.0,537.0,-210.0,138.0,-127.0,-753.0,-360.0,5
696,-28.0,-187.0,-93.0,511.0,-212.0,129.0,-113.0,-766.0,-366.0,5
697,-29.0,-186.0,-95.0,481.0,-205.0,122.0,-98.0,-777.0,-375.0,5
698,-21.0,-190.0,-96.0,450.0,-194.0,116.0,-89.0,-777.0,-373.0,5
699,-19.0,-193.0,-92.0,416.0,-177.0,107.0,-88.0,-787.0,-379.0,5
700,-17.0,-194.0,-96.0,386.0,-158.0,92.0,-79.0,-795.0,-379.0,5
701,-18.0,-194.0,-95.0,357.0,-139.0,71.0,-64.0,-804.0,-371.0,5
702,-13.0,-200.0,-93.0,334.0,-125.0,50.0,-59.0,-814.0,-368.0,5
703,-13.0,-200.0,-92.0,319.0,-114.0,32.0,-47.0,-825.0,-364.0,5
704,-12.0,-205.0,-87.0,310.0,-104.0,14.0,-43.0,-836.0,-356.0,5
705,-9.0,-206.0,-88.0,311.0,-91.0,-2.0,-43.0,-846.0,-353.0,5
706,-9.0,-214.0,-86.0,313.0,-79.0,-9.0,-38.0,-861.0,-353.0,5
707,-9.0,-213.0,-87.0,315.0,-71.0,-17.0,-35.0,-869.0,-334.0,5
708,-8.0,-209.0,-79.0,318.0,-68.0,-25.0,-38.0,-872.0,-327.0,5
709,-12.0,-215.0,-81.0,323.0,-69.0,-33.0,-43.0,-890.0,-311.0,5
710,-14.0,-220.0,-73.0,333.0,-75.0,-40.0,-51.0,-898.0,-303.0,5
711,-17.0,-221.0,-73.0,350.0,-87.0,-46.0,-58.0,-913.0,-286.0,5
712,-19.0,-225.0,-71.0,372.0,-103.0,-49.0,-65.0,-924.0,-278.0,5
713,-22.0,-231.0,-73.0,396.0,-124.0,-51.0,-79.0,-937.0,-281.0,5
714,-22.0,-230.0,-74.0,420.0,-143.0,-48.0,-85.0,-943.0,-280.0,5
715,-23.0,-232.0,-77.0,442.0,-156.0,-47.0,-89.0,-950.0,-283.0,5
716,-21.0,-235.0,-76.0,463.0,-165.0,-49.0,-92.0,-952.0,-296.0,5
717,-26.0,-236.0,-75.0,481.0,-168.0,-53.0,-97.0,-954.0,-284.0,5
718,-28.0,-236.0,-70.0,496.0,-169.0,-55.0,-104.0,-968.0,-275.0,5
719,-29.0,-241.0,-65.0,520.0,-169.0,-59.0,-109.0,-969.0,-261.0,5
720,-29.0,-242.0,-58.0,547.0,-168.0,-63.0,-119.0,-973.0,-212.0,5
721,-31.0,-236.0,-54.0,579.0,-164.0,-68.0,-125.0,-966.0,-196.0,5
722,-35.0,-232.0,-45.0,607.0,-162.0,-73.0,-139.0,-963.0,-190.0,5
723,-41.0,-232.0,-45.0,626.0,-162.0,-76.0,-148.0,-947.0,-185.0,5
724,-42.0,-228.0,-45.0,629.0,-167.0,-76.0,-162.0,-937.0,-167.0,5
725,-38.0,-224.0,-41.0,619.0,-173.0,-71.0,-165.0,-923.0,-161.0,5
726,-42.0,-220.0,-39.0,595.0,-177.0,-66.0,-169.0,-912.0,-152.0,5
727,-42.0,-217.0,-38.0,560.0,-183.0,-58.0,-165.0,-907.0,-152.0,5
728,-40.0,-216.0,-44.0,513.0,-191.0,-49.0,-158.0,-897.0,-149.0,5
729,-36.0,-216.0,-42.0,455.0,-207.0,-41.0,-144.0,-882.0,-160.0,5
730,-35.0,-211.0,-45.0,390.0,-233.0,-33.0,-128.0,-884.0,-172.0,5
731,-29.0,-213.0,-47.0,324.0,-254.0,-24.0,-111.0,-884.0,-182.0,5
732,-25.0,-211.0,-50.0,261.0,-270.0,-19.0,-93.0,-887.0,-200.0,5
733,-21.0,-215.0,-52.0,194.0,-276.0,-17.0,-83.0,-890.0,-202.0,5
734,-15.0,-215.0,-51.0,149.0,-273.0,-21.0,-71.0,-890.0,-201.0,5
735,-12.0,-217.0,-54.0,107.0,-263.0,-31.0,-55.0,-894.0,-212.0,5
736,-9.0,-218.0,-58.0,67.0,-251.0,-45.0,-45.0,-898.0,-222.0,5
737,-9.0,-223.0,-63.0,22.0,-239.0,-61.0,-40.0,-915.0,-223.0,5
738,-7.0,-224.0,-57.0,-22.0,-226.0,-80.0,-29.0,-932.0,-237.0,5
739,-3.0,-235.0,-58.0,-64.0,-211.0,-99.0,-20.0,-941.0,-226.0,5
740,-1.0,-239.0,-55.0,-98.0,-191.0,-116.0,-12.0,-972.0,-222.0,5
741,0.0,-242.0,-58.0,-119.0,-170.0,-128.0,1.0,-983.0,-218.0,5
742,0.0,-246.0,-60.0,-129.0,-147.0,-137.0,4.0,-994.0,-226.0,5
743,-1.0,-246.0,-65.0,-132.0,-119.0,-141.0,-7.0,-1009.0,-243.0,5
744,-3.0,-252.0,-66.0,-133.0,-89.0,-141.0,-8.0,-1019.0,-250.0,5
745,-4.0,-254.0,-66.0,-140.0,-58.0,-137.0,-18.0,-1039.0,-250.0,5
746,-7.0,-257.0,-63.0,-139.0,-33.0,-134.0,-35.0,-1056.0,-245.0,5
747,-11.0,-257.0,-60.0,-132.0,-12.0,-126.0,-45.0,-1061.0,-236.0,5
748,-19.0,-261.0,-61.0,-117.0,3.0,-116.0,-71.0,-1058.0,-224.0,5
749,-22.0,-260.0,-59.0,-93.0,16.0,-105.0,-85.0,-1059.0,-212.0,5
750,-22.0,-261.0,-54.0,-58.0,31.0,-94.0,-98.0,-1053.0,-211.0,5
751,-24.0,-256.0,-56.0,-22.0,48.0,-84.0,-107.0,-1033.0,-213.0,5
752,-29.0,-251.0,-57.0,12.0,67.0,-71.0,-112.0,-1025.0,-207.0,5
753,-31.0,-248.0,-60.0,39.0,81.0,-59.0,-128.0,-1002.0,-238.0,5
754,-35.0,-242.0,-68.0,56.0,94.0,-42.0,-133.0,-993.0,-250.0,5
755,-39.0,-238.0,-68.0,66.0,105.0,-23.0,-148.0,-978.0,-268.0,5
756,-40.0,-238.0,-73.0,69.0,117.0,0.0,-154.0,-965.0,-285.0,5
757,-39.0,-234.0,-82.0,67.0,130.0,20.0,-152.0,-950.0,-311.0,5
758,-38.0,-232.0,-80.0,65.0,141.0,35.0,-157.0,-943.0,-332.0,5
759,-38.0,-232.0,-92.0,63.0,150.0,46.0,-153.0,-945.0,-353.0,5
760,-37.0,-230.0,-93.0,62.0,157.0,49.0,-145.0,-937.0,-370.0,5
761,-38.0,-233.0,-94.0,67.0,161.0,43.0,-142.0,-944.0,-396.0,5
762,-38.0,-234.0,-107.0,73.0,161.0,31.0,-128.0,-946.0,-400.0,5
763,-34.0,-233.0,-103.0,82.0,159.0,11.0,-127.0,-947.0,-420.0,5
764,-33.0,-237.0,-101.0,95.0,159.0,-10.0,-124.0,-958.0,-418.0,5
765,-35.0,-240.0,-105.0,116.0,161.0,-31.0,-138.0,-969.0,-421.0,5
766,-42.0,-240.0,-106.0,138.0,166.0,-46.0,-145.0,-983.0,-431.0,5
767,-41.0,-247.0,-103.0,151.0,178.0,-56.0,-162.0,-1001.0,-417.0,5
768,-48.0,-252.0,-101.0,158.0,195.0,-59.0,-178.0,-1026.0,-414.0,5
769,-52.0,-256.0,-105.0,152.0,214.0,-54.0,-193.0,-1052.0,-404.0,5
770,-51.0,-265.0,-98.0,137.0,237.0,-42.0,-206.0,-1086.0,-396.0,5
771,-56.0,-272.0,-97.0,117.0,265.0,-21.0,-219.0,-1126.0,-384.0,5
772,-61.0,-288.0,-93.0,97.0,296.0,7.0,-229.0,-1173.0,-366.0,5
773,-62.0,-292.0,-88.0,72.0,319.0,46.0,-234.0,-1223.0,-355.0,5
774,-61.0,-316.0,-83.0,49.0,326.0,91.0,-226.0,-1275.0,-339.0,5
775,-55.0,-320.0,-85.0,28.0,316.0,135.0,-199.0,-1326.0,-352.0,5
776,-45.0,-333.0,-89.0,8.0,291.0,176.0,-161.0,-1362.0,-348.0,5
777,-27.0,-345.0,-92.0,-10.0,257.0,219.0,-111.0,-1408.0,-353.0,5
778,-17.0,-357.0,-97.0,-25.0,219.0,254.0,-65.0,-1434.0,-372.0,5
779,-3.0,-361.0,-99.0,-38.0,180.0,287.0,-18.0,-1468.0,-391.0,5
780,4.0,-364.0,-98.0,-46.0,148.0,318.0,33.0,-1476.0,-392.0,5
781,18.0,-361.0,-106.0,-40.0,120.0,338.0,71.0,-1476.0,-426.0,5
782,18.0,-355.0,-113.0,-29.0,100.0,344.0,90.0,-1437.0,-454.0,5
783,18.0,-344.0,-121.0,-18.0,81.0,333.0,75.0,-1404.0,-482.0,5
784,3.0,-331.0,-124.0,-16.0,60.0,315.0,29.0,-1358.0,-505.0,5
785,-4.0,-323.0,-131.0,-26.0,34.0,290.0,-9.0,-1322.0,-507.0,5
786,-15.0,-313.0,-123.0,-51.0,3.0,268.0,-37.0,-1290.0,-499.0,5
787,-23.0,-314.0,-121.0,-85.0,-25.0,248.0,-87.0,-1280.0,-484.0,5
788,-31.0,-315.0,-121.0,-124.0,-34.0,231.0,-120.0,-1289.0,-486.0,5
789,-42.0,-320.0,-122.0,-182.0,-26.0,221.0,-151.0,-1311.0,-485.0,5
790,-45.0,-327.0,-122.0,-253.0,-2.0,217.0,-174.0,-1341.0,-491.0,5
791,-50.0,-333.0,-120.0,-323.0,26.0,211.0,-189.0,-1363.0,-489.0,5
792,-53.0,-338.0,-129.0,-385.0,43.0,204.0,-211.0,-1372.0,-495.0,5
793,-58.0,-341.0,-131.0,-427.0,45.0,189.0,-218.0,-1378.0,-517.0,5
794,-65.0,-330.0,-135.0,-446.0,38.0,165.0,-231.0,-1360.0,-538.0,5
795,-65.0,-332.0,-138.0,-445.0,28.0,137.0,-245.0,-1346.0,-558.0,5
796,-66.0,-324.0,-143.0,-427.0,25.0,104.0,-251.0,-1321.0,-568.0,5
797,-69.0,-318.0,-143.0,-399.0,26.0,66.0,-259.0,-1285.0,-580.0,5
798,-67.0,-308.0,-145.0,-356.0,35.0,19.0,-260.0,-1259.0,-596.0,5
799,-66.0,-300.0,-149.0,-322.0,46.0,-31.0,-257.0,-1217.0,-606.0,5
800,-65.0,-288.0,-146.0,-302.0,64.0,-81.0,-246.0,-1175.0,-604.0,5
801,-58.0,-279.0,-143.0,-288.0,89.0,-129.0,-230.0,-1145.0,-595.0,5
802,-54.0,-265.0,-150.0,-282.0,117.0,-171.0,-213.0,-1079.0,-607.0,5
803,-48.0,-254.0,-146.0,-282.0,143.0,-209.0,-190.0,-1036.0,-599.0,5
804,-40.0,-241.0,-150.0,-283.0,167.0,-242.0,-137.0,-982.0,-619.0,5
805,-37.0,-228.0,-147.0,-287.0,209.0,-261.0,-125.0,-931.0,-608.0,5
806,-26.0,-218.0,-144.0,-288.0,246.0,-267.0,-100.0,-876.0,-603.0,5
807,-20.0,-201.0,-141.0,-279.0,272.0,-265.0,-68.0,-829.0,-575.0,5
808,-14.0,-196.0,-139.0,-252.0,283.0,-257.0,-48.0,-792.0,-568.0,5
809,-7.0,-190.0,-135.0,-215.0,279.0,-245.0,-23.0,-762.0,-550.0,5
810,-4.0,-181.0,-138.0,-165.0,269.0,-231.0,-2.0,-735.0,-552.0,5
811,-2.0,-178.0,-132.0,-121.0,257.0,-215.0,8.0,-715.0,-537.0,5
812,2.0,-178.0,-132.0,-81.0,240.0,-191.0,22.0,-710.0,-524.0,5
813,1.0,-175.0,-124.0,-44.0,220.0,-165.0,29.0,-712.0,-504.0,5
814,2.0,-179.0,-120.0,-4.0,194.0,-139.0,26.0,-727.0,-478.0,5
815,-1.0,-187.0,-118.0,42.0,159.0,-109.0,19.0,-742.0,-459.0,5
816,-5.0,-191.0,-111.0,91.0,121.0,-80.0,5.0,-765.0,-452.0,5
817,-4.0,-192.0,-107.0,142.0,85.0,-51.0,-3.0,-780.0,-439.0,5
818,-5.0,-196.0,-109.0,193.0,50.0,-23.0,-15.0,-800.0,-427.0,5
819,-11.0,-201.0,-106.0,244.0,22.0,4.0,-32.0,-811.0,-428.0,5
820,-18.0,-208.0,-106.0,290.0,-1.0,27.0,-48.0,-838.0,-419.0,5
821,-20.0,-212.0,-100.0,331.0,-17.0,41.0,-66.0,-860.0,-408.0,5
822,-21.0,-215.0,-99.0,365.0,-31.0,47.0,-74.0,-894.0,-398.0,5
823,-19.0,-219.0,-97.0,394.0,-38.0,46.0,-74.0,-901.0,-390.0,5
824,-17.0,-224.0,-96.0,419.0,-40.0,37.0,-54.0,-899.0,-383.0,5
825,-17.0,-223.0,-91.0,436.0,-35.0,26.0,-57.0,-903.0,-370.0,5
826,-21.0,-223.0,-86.0,452.0,-25.0,15.0,-77.0,-915.0,-343.0,5
827,-19.0,-233.0,-85.0,471.0,-17.0,3.0,-69.0,-920.0,-340.0,5
828,-18.0,-226.0,-76.0,488.0,-16.0,-20.0,-69.0,-920.0,-315.0,5
829,-15.0,-226.0,-85.0,504.0,-14.0,-42.0,-63.0,-923.0,-336.0,5
830,-15.0,-219.0,-80.0,506.0,-4.0,-67.0,-50.0,-905.0,-328.0,5
831,-17.0,-219.0,-79.0,497.0,7.0,-87.0,-68.0,-900.0,-322.0,5
832,-17.0,-218.0,-78.0,486.0,14.0,-104.0,-76.0,-889.0,-323.0,5
833,-21.0,-210.0,-80.0,470.0,9.0,-117.0,-78.0,-866.0,-323.0,5
834,-19.0,-205.0,-81.0,454.0,0.0,-132.0,-74.0,-851.0,-318.0,5
835,-18.0,-202.0,-79.0,440.0,-14.0,-145.0,-63.0,-834.0,-315.0,5
836,-14.0,-194.0,-74.0,426.0,-31.0,-158.0,-54.0,-806.0,-312.0,5
837,-16.0,-190.0,-76.0,414.0,-50.0,-167.0,-51.0,-786.0,-315.0,5
838,-8.0,-188.0,-80.0,406.0,-65.0,-169.0,-45.0,-767.0,-318.0,5
839,-11.0,-180.0,-81.0,394.0,-70.0,-169.0,-36.0,-747.0,-322.0,5
840,-6.0,-179.0,-82.0,373.0,-67.0,-173.0,-29.0,-724.0,-321.0,5
841,-5.0,-166.0,-86.0,349.0,-60.0,-180.0,-24.0,-703.0,-323.0,5
842,-4.0,-167.0,-81.0,322.0,-47.0,-184.0,-16.0,-686.0,-315.0,5
843,0.0,-162.0,-77.0,294.0,-28.0,-188.0,3.0,-671.0,-322.0,5
844,1.0,-163.0,-76.0,269.0,-6.0,-195.0,13.0,-660.0,-311.0,5
845,5.0,-156.0,-80.0,247.0,14.0,-202.0,21.0,-651.0,-311.0,5
846,10.0,-152.0,-80.0,226.0,31.0,-207.0,39.0,-640.0,-314.0,5
847,10.0,-151.0,-82.0,200.0,45.0,-217.0,44.0,-637.0,-322.0,5
848,7.0,-152.0,-82.0,167.0,60.0,-224.0,45.0,-637.0,-325.0,5
849,7.0,-156.0,-78.0,133.0,71.0,-226.0,38.0,-638.0,-324.0,5
850,8.0,-157.0,-78.0,101.0,76.0,-232.0,42.0,-648.0,-330.0,5
851,10.0,-163.0,-84.0,69.0,76.0,-237.0,45.0,-662.0,-326.0,5
852,10.0,-162.0,-83.0,42.0,77.0,-244.0,35.0,-666.0,-326.0,5
853,9.0,-166.0,-85.0,21.0,74.0,-254.0,31.0,-681.0,-345.0,5
854,7.0,-170.0,-90.0,3.0,73.0,-262.0,30.0,-694.0,-349.0,5
855,1.0,-171.0,-86.0,-16.0,76.0,-274.0,28.0,-703.0,-353.0,5
856,0.0,-176.0,-92.0,-35.0,77.0,-291.0,22.0,-721.0,-359.0,5
857,1.0,-181.0,-92.0,-51.0,80.0,-304.0,7.0,-733.0,-358.0,5
858,-1.0,-187.0,-92.0,-61.0,88.0,-315.0,1.0,-753.0,-357.0,5
859,2.0,-189.0,-96.0,-64.0,101.0,-325.0,-6.0,-776.0,-351.0,5
860,-1.0,-193.0,-88.0,-64.0,122.0,-337.0,-11.0,-788.0,-348.0,5
861,-2.0,-195.0,-86.0,-63.0,146.0,-346.0,-8.0,-795.0,-336.0,5
862,-3.0,-200.0,-82.0,-54.0,171.0,-352.0,-12.0,-806.0,-327.0,5
863,-3.0,-201.0,-81.0,-43.0,196.0,-356.0,-10.0,-811.0,-324.0,5
864,1.0,-203.0,-79.0,-31.0,217.0,-349.0,6.0,-821.0,-313.0,5
865,2.0,-200.0,-79.0,-24.0,234.0,-344.0,11.0,-819.0,-300.0,5
866,6.0,-201.0,-79.0,-21.0,249.0,-335.0,19.0,-816.0,-298.0,5
867,11.0,-202.0,-75.0,-19.0,259.0,-325.0,30.0,-832.0,-296.0,5
868,10.0,-206.0,-73.0,-22.0,267.0,-313.0,43.0,-830.0,-287.0,5
869,12.0,-207.0,-72.0,-27.0,270.0,-304.0,54.0,-844.0,-276.0,5
870,12.0,-217.0,-73.0,-28.0,267.0,-297.0,71.0,-864.0,-271.0,5
871,17.0,-214.0,-72.0,-24.0,265.0,-292.0,75.0,-869.0,-270.0,5
872,20.0,-214.0,-72.0,-16.0,262.0,-284.0,91.0,-888.0,-270.0,5
873,23.0,-223.0,-71.0,-8.0,259.0,-278.0,92.0,-900.0,-276.0,5
874,20.0,-224.0,-71.0,5.0,252.0,-274.0,84.0,-916.0,-274.0,5
875,23.0,-226.0,-72.0,23.0,244.0,-265.0,84.0,-921.0,-281.0,5
876,23.0,-227.0,-75.0,40.0,236.0,-257.0,82.0,-934.0,-280.0,5
877,19.0,-233.0,-72.0,57.0,229.0,-254.0,76.0,-945.0,-289.0,5
878,17.0,-235.0,-74.0,76.0,223.0,-255.0,70.0,-961.0,-298.0,5
879,18.0,-239.0,-74.0,92.0,223.0,-255.0,71.0,-961.0,-294.0,5
880,7.0,-237.0,-77.0,114.0,228.0,-254.0,50.0,-971.0,-285.0,5
881,4.0,-241.0,-76.0,133.0,232.0,-255.0,37.0,-975.0,-280.0,5
882,1.0,-237.0,-70.0,158.0,233.0,-257.0,17.0,-980.0,-275.0,5
883,-3.0,-240.0,-76.0,181.0,235.0,-256.0,2.0,-984.0,-281.0,5
884,0.0,-239.0,-71.0,194.0,233.0,-260.0,4.0,-982.0,-280.0,5
885,-5.0,-241.0,-72.0,193.0,230.0,-263.0,-16.0,-979.0,-282.0,5
886,-6.0,-238.0,-69.0,185.0,220.0,-264.0,-20.0,-967.0,-275.0,5
887,-5.0,-234.0,-70.0,172.0,207.0,-260.0,-24.0,-954.0,-279.0,5
888,-6.0,-229.0,-73.0,159.0,192.0,-253.0,-26.0,-946.0,-275.0,5
889,-6.0,-230.0,-72.0,147.0,180.0,-245.0,-18.0,-934.0,-271.0,5
890,-4.0,-227.0,-71.0,140.0,165.0,-237.0,-21.0,-931.0,-269.0,5
891,-4.0,-226.0,-69.0,134.0,145.0,-233.0,-17.0,-921.0,-266.0,5
892,-4.0,-229.0,-70.0,129.0,126.0,-234.0,-15.0,-930.0,-265.0,5
893,-4.0,-226.0,-73.0,121.0,112.0,-237.0,-17.0,-924.0,-272.0,5
894,-4.0,-224.0,-72.0,113.0,104.0,-239.0,-14.0,-925.0,-264.0,5
895,-3.0,-225.0,-71.0,106.0,103.0,-242.0,-13.0,-922.0,-263.0,5
896,-2.0,-226.0,-68.0,103.0,104.0,-241.0,-10.0,-925.0,-260.0,5
897,-3.0,-227.0,-66.0,99.0,100.0,-246.0,-5.0,-937.0,-252.0,5
898,0.0,-230.0,-67.0,99.0,95.0,-251.0,4.0,-934.0,-247.0,5
899,-2.0,-227.0,-64.0,98.0,89.0,-255.0,6.0,-941.0,-241.0,5
900,-2.0,-231.0,-62.0,98.0,84.0,-260.0,14.0,-950.0,-237.0,5
901,0.0,-236.0,-62.0,98.0,79.0,-258.0,12.0,-954.0,-225.0,5
902,5.0,-235.0,-66.0,101.0,75.0,-256.0,22.0,-954.0,-241.0,5
903,2.0,-232.0,-66.0,101.0,72.0,-252.0,38.0,-958.0,-246.0,5
904,11.0,-233.0,-66.0,99.0,66.0,-245.0,44.0,-945.0,-247.0,5
905,15.0,-229.0,-65.0,97.0,59.0,-234.0,61.0,-936.0,-257.0,5
906,20.0,-227.0,-65.0,96.0,51.0,-224.0,70.0,-933.0,-242.0,5
907,21.0,-227.0,-61.0,97.0,45.0,-210.0,88.0,-933.0,-245.0,5
908,26.0,-226.0,-62.0,98.0,41.0,-197.0,100.0,-932.0,-225.0,5
909,27.0,-226.0,-56.0,99.0,42.0,-185.0,116.0,-928.0,-213.0,5
910,28.0,-230.0,-53.0,97.0,48.0,-170.0,117.0,-923.0,-203.0,5
911,31.0,-224.0,-52.0,91.0,62.0,-159.0,129.0,-926.0,-201.0,5
912,34.0,-224.0,-52.0,80.0,80.0,-149.0,127.0,-924.0,-200.0,5
913,36.0,-222.0,-53.0,62.0,102.0,-139.0,138.0,-919.0,-198.0,5
914,42.0,-217.0,-52.0,41.0,125.0,-127.0,141.0,-918.0,-199.0,5
915,37.0,-220.0,-55.0,16.0,146.0,-114.0,133.0,-915.0,-185.0,5
916,36.0,-226.0,-48.0,-10.0,164.0,-102.0,134.0,-918.0,-183.0,5
917,39.0,-227.0,-45.0,-35.0,180.0,-89.0,140.0,-929.0,-179.0,5
918,38.0,-228.0,-43.0,-57.0,196.0,-76.0,145.0,-931.0,-174.0,5
919,38.0,-227.0,-49.0,-70.0,218.0,-63.0,145.0,-933.0,-172.0,5
920,41.0,-231.0,-46.0,-77.0,238.0,-45.0,140.0,-936.0,-172.0,5
921,35.0,-234.0,-47.0,-76.0,254.0,-28.0,141.0,-943.0,-172.0,5
922,32.0,-232.0,-47.0,-67.0,265.0,-10.0,134.0,-941.0,-169.0,5
923,33.0,-232.0,-47.0,-56.0,273.0,9.0,132.0,-941.0,-180.0,5
924,27.0,-227.0,-48.0,-42.0,276.0,32.0,123.0,-932.0,-181.0,5
925,29.0,-227.0,-52.0,-31.0,275.0,51.0,117.0,-932.0,-186.0,5
926,30.0,-225.0,-53.0,-23.0,270.0,75.0,104.0,-918.0,-191.0,5
927,24.0,-223.0,-56.0,-25.0,259.0,100.0,96.0,-913.0,-205.0,5
928,20.0,-217.0,-58.0,-35.0,245.0,121.0,90.0,-904.0,-214.0,5
929,18.0,-218.0,-57.0,-52.0,228.0,140.0,75.0,-901.0,-211.0,5
930,16.0,-217.0,-55.0,-74.0,201.0,159.0,69.0,-892.0,-220.0,5
931,16.0,-211.0,-59.0,-102.0,175.0,174.0,60.0,-881.0,-219.0,5
932,16.0,-211.0,-59.0,-135.0,151.0,187.0,51.0,-870.0,-226.0,5
933,10.0,-209.0,-59.0,-172.0,132.0,200.0,44.0,-860.0,-227.0,5
934,8.0,-208.0,-59.0,-210.0,114.0,207.0,34.0,-848.0,-224.0,5
935,5.0,-202.0,-62.0,-249.0,95.0,215.0,26.0,-843.0,-229.0,5
936,2.0,-204.0,-66.0,-286.0,76.0,220.0,18.0,-828.0,-231.0,5
937,2.0,-205.0,-60.0,-322.0,54.0,222.0,11.0,-831.0,-234.0,5
938,-1.0,-200.0,-62.0,-353.0,34.0,223.0,10.0,-828.0,-239.0,5
939,-2.0,-202.0,-62.0,-377.0,16.0,216.0,9.0,-824.0,-235.0,5
940,-2.0,-202.0,-60.0,-390.0,1.0,209.0,7.0,-833.0,-242.0,5
941,-2.0,-203.0,-67.0,-391.0,-17.0,202.0,5.0,-838.0,-247.0,5
942,-3.0,-206.0,-70.0,-385.0,-36.0,192.0,1.0,-835.0,-261.0,5
943,-5.0,-210.0,-73.0,-370.0,-60.0,184.0,-3.0,-851.0,-276.0,5
944,-3.0,-213.0,-78.0,-347.0,-87.0,177.0,-14.0,-861.0,-283.0,5
945,-10.0,-216.0,-78.0,-325.0,-114.0,177.0,-35.0,-879.0,-296.0,5
946,-10.0,-218.0,-78.0,-306.0,-144.0,178.0,-29.0,-891.0,-312.0,5
947,-14.0,-224.0,-84.0,-293.0,-175.0,173.0,-32.0,-893.0,-333.0,5
948,-12.0,-219.0,-90.0,-282.0,-206.0,160.0,-42.0,-915.0,-337.0,5
949,-11.0,-228.0,-94.0,-272.0,-233.0,151.0,-44.0,-924.0,-373.0,5
950,-4.0,-234.0,-100.0,-268.0,-256.0,144.0,-14.0,-951.0,-378.0,5
951,0.0,-242.0,-105.0,-265.0,-276.0,132.0,4.0,-980.0,-410.0,5
952,-2.0,-244.0,-113.0,-262.0,-300.0,115.0,10.0,-989.0,-460.0,5
953,8.0,-242.0,-129.0,-251.0,-337.0,85.0,40.0,-991.0,-505.0,5
954,13.0,-249.0,-135.0,-236.0,-376.0,38.0,59.0,-1004.0,-538.0,5
955,27.0,-255.0,-136.0,-217.0,-395.0,-8.0,112.0,-1029.0,-539.0,5
956,42.0,-264.0,-132.0,-195.0,-384.0,-55.0,163.0,-1070.0,-508.0,5
957,42.0,-281.0,-126.0,-174.0,-350.0,-101.0,168.0,-1104.0,-487.0,5
958,45.0,-281.0,-115.0,-158.0,-308.0,-137.0,165.0,-1142.0,-458.0,5
959,45.0,-293.0,-105.0,-155.0,-263.0,-164.0,161.0,-1168.0,-425.0,5
960,36.0,-294.0,-100.0,-160.0,-220.0,-186.0,141.0,-1189.0,-398.0,5
961,33.0,-301.0,-93.0,-166.0,-178.0,-199.0,125.0,-1213.0,-373.0,5
962,27.0,-302.0,-94.0,-170.0,-124.0,-216.0,110.0,-1231.0,-355.0,5
963,25.0,-305.0,-93.0,-169.0,-64.0,-240.0,94.0,-1245.0,-340.0,5
964,27.0,-309.0,-89.0,-173.0,-16.0,-272.0,84.0,-1252.0,-350.0,5
965,24.0,-313.0,-87.0,-184.0,19.0,-302.0,87.0,-1271.0,-350.0,5
966,23.0,-318.0,-84.0,-189.0,47.0,-332.0,91.0,-1291.0,-347.0,5
967,25.0,-325.0,-88.0,-179.0,66.0,-366.0,98.0,-1322.0,-340.0,5
968,25.0,-330.0,-80.0,-169.0,80.0,-404.0,102.0,-1350.0,-324.0,5
969,29.0,-336.0,-84.0,-160.0,93.0,-444.0,117.0,-1366.0,-320.0,5
970,29.0,-342.0,-76.0,-156.0,114.0,-483.0,110.0,-1384.0,-307.0,5
971,29.0,-340.0,-78.0,-156.0,143.0,-523.0,95.0,-1387.0,-288.0,5
972,26.0,-343.0,-71.0,-154.0,179.0,-554.0,92.0,-1389.0,-281.0,5
973,20.0,-340.0,-73.0,-149.0,219.0,-577.0,77.0,-1384.0,-274.0,5
974,11.0,-335.0,-72.0,-147.0,255.0,-589.0,50.0,-1366.0,-272.0,5
975,6.0,-325.0,-71.0,-150.0,280.0,-589.0,30.0,-1333.0,-280.0,5
976,0.0,-317.0,-75.0,-157.0,290.0,-561.0,-4.0,-1274.0,-291.0,5
977,-6.0,-298.0,-80.0,-174.0,283.0,-508.0,-17.0,-1222.0,-312.0,5
978,-11.0,-280.0,-90.0,-203.0,250.0,-439.0,-21.0,-1163.0,-328.0,5
979,-12.0,-269.0,-92.0,-259.0,200.0,-366.0,-19.0,-1119.0,-352.0,5
980,-5.0,-262.0,-96.0,-340.0,149.0,-293.0,-22.0,-1097.0,-381.0,5
981,-2.0,-258.0,-107.0,-450.0,105.0,-223.0,-2.0,-1080.0,-404.0,5
982,3.0,-261.0,-111.0,-581.0,78.0,-155.0,22.0,-1087.0,-435.0,5
983,9.0,-272.0,-117.0,-719.0,75.0,-80.0,36.0,-1109.0,-448.0,5
984,16.0,-283.0,-114.0,-858.0,89.0,-27.0,60.0,-1162.0,-468.0,5
985,15.0,-290.0,-125.0,-993.0,112.0,27.0,66.0,-1220.0,-486.0,5
986,10.0,-309.0,-125.0,-1115.0,154.0,88.0,55.0,-1277.0,-488.0,5
987,13.0,-323.0,-128.0,-1220.0,185.0,158.0,46.0,-1330.0,-507.0,5
988,15.0,-332.0,-139.0,-1291.0,208.0,238.0,70.0,-1366.0,-543.0,5
989,31.0,-340.0,-147.0,-1331.0,222.0,321.0,123.0,-1391.0,-579.0,5
990,47.0,-347.0,-154.0,-1317.0,241.0,401.0,197.0,-1407.0,-614.0,5
991,60.0,-348.0,-160.0,-1264.0,264.0,484.0,249.0,-1397.0,-647.0,5
992,69.0,-347.0,-166.0,-1177.0,286.0,575.0,288.0,-1390.0,-663.0,5
993,70.0,-341.0,-168.0,-1063.0,296.0,663.0,291.0,-1367.0,-676.0,5
994,72.0,-329.0,-177.0,-931.0,289.0,748.0,306.0,-1328.0,-695.0,5
995,76.0,-317.0,-179.0,-803.0,273.0,808.0,319.0,-1277.0,-726.0,5
996,71.0,-296.0,-181.0,-678.0,259.0,847.0,297.0,-1197.0,-733.0,5
997,67.0,-278.0,-183.0,-561.0,252.0,869.0,275.0,-1120.0,-746.0,5
998,69.0,-255.0,-191.0,-460.0,253.0,874.0,283.0,-1044.0,-762.0,5
999,66.0,-240.0,-190.0,-383.0,264.0,859.0,272.0,-973.0,-771.0,5
1000,62.0,-224.0,-191.0,-335.0,279.0,832.0,265.0,-920.0,-778.0,5
1001,65.0,-219.0,-190.0,-312.0,289.0,809.0,263.0,-884.0,-778.0,5
1002,60.0,-205.0,-192.0,-306.0,292.0,784.0,250.0,-847.0,-767.0,5
1003,56.0,-197.0,-181.0,-303.0,290.0,759.0,238.0,-810.0,-743.0,5
1004,53.0,-192.0,-182.0,-293.0,287.0,738.0,211.0,-787.0,-730.0,5
1005,44.0,-190.0,-178.0,-269.0,280.0,721.0,170.0,-764.0,-719.0,5
1006,33.0,-185.0,-172.0,-237.0,263.0,707.0,134.0,-741.0,-692.0,5
1007,25.0,-182.0,-168.0,-194.0,239.0,695.0,91.0,-732.0,-670.0,5
1008,10.0,-184.0,-163.0,-136.0,208.0,682.0,60.0,-731.0,-647.0,5
1009,7.0,-187.0,-156.0,-62.0,175.0,660.0,26.0,-738.0,-624.0,5
1010,-2.0,-183.0,-150.0,18.0,152.0,628.0,6.0,-737.0,-611.0,5
1011,-6.0,-182.0,-148.0,99.0,140.0,592.0,-1.0,-735.0,-579.0,5
1012,-12.0,-182.0,-139.0,173.0,136.0,555.0,-29.0,-735.0,-563.0,5
1013,-10.0,-182.0,-137.0,241.0,144.0,516.0,-43.0,-735.0,-558.0,5
1014,-18.0,-184.0,-129.0,303.0,162.0,481.0,-69.0,-741.0,-529.0,5
1015,-24.0,-184.0,-127.0,359.0,189.0,447.0,-92.0,-738.0,-513.0,5
1016,-28.0,-185.0,-119.0,405.0,216.0,416.0,-119.0,-742.0,-488.0,5
1017,-33.0,-184.0,-113.0,443.0,238.0,387.0,-124.0,-745.0,-469.0,5
1018,-36.0,-186.0,-113.0,477.0,255.0,359.0,-140.0,-746.0,-446.0,5
1019,-38.0,-185.0,-111.0,499.0,267.0,332.0,-140.0,-742.0,-446.0,5
1020,-40.0,-180.0,-109.0,502.0,269.0,307.0,-142.0,-733.0,-448.0,5
1021,-39.0,-178.0,-113.0,487.0,248.0,288.0,-148.0,-726.0,-457.0,5
1022,-38.0,-173.0,-116.0,456.0,212.0,273.0,-140.0,-711.0,-464.0,5
1023,-36.0,-173.0,-118.0,408.0,162.0,266.0,-127.0,-711.0,-473.0,5
1024,-31.0,-173.0,-117.0,352.0,102.0,267.0,-123.0,-705.0,-475.0,5
1025,-29.0,-170.0,-118.0,291.0,40.0,272.0,-109.0,-702.0,-477.0,5
1026,-25.0,-175.0,-118.0,230.0,-18.0,273.0,-94.0,-712.0,-481.0,5
1027,-26.0,-174.0,-116.0,176.0,-68.0,269.0,-86.0,-724.0,-474.0,5
1028,-24.0,-179.0,-116.0,135.0,-106.0,260.0,-90.0,-732.0,-460.0,5
1029,-20.0,-184.0,-115.0,106.0,-131.0,246.0,-88.0,-736.0,-456.0,5
1030,-22.0,-184.0,-115.0,94.0,-141.0,228.0,-92.0,-746.0,-453.0,5
1031,-26.0,-186.0,-113.0,89.0,-139.0,207.0,-95.0,-751.0,-457.0,5
1032,-24.0,-184.0,-112.0,92.0,-126.0,183.0,-101.0,-758.0,-457.0,5
1033,-24.0,-189.0,-112.0,100.0,-109.0,154.0,-103.0,-755.0,-455.0,5
1034,-24.0,-188.0,-114.0,116.0,-90.0,127.0,-93.0,-759.0,-461.0,5
1035,-21.0,-187.0,-115.0,131.0,-73.0,104.0,-84.0,-754.0,-468.0,5
1036,-16.0,-180.0,-124.0,142.0,-62.0,79.0,-70.0,-748.0,-474.0,5
1037,-19.0,-181.0,-118.0,146.0,-56.0,55.0,-61.0,-740.0,-484.0,5
1038,-20.0,-176.0,-123.0,149.0,-63.0,39.0,-58.0,-726.0,-491.0,5
1039,-11.0,-175.0,-119.0,149.0,-76.0,31.0,-49.0,-713.0,-493.0,5
1040,-12.0,-171.0,-127.0,152.0,-98.0,26.0,-39.0,-699.0,-505.0,5
1041,-11.0,-166.0,-132.0,152.0,-122.0,24.0,-31.0,-685.0,-512.0,5
1042,-12.0,-161.0,-133.0,151.0,-147.0,28.0,-32.0,-664.0,-527.0,5
1043,-7.0,-160.0,-132.0,142.0,-168.0,38.0,-22.0,-661.0,-529.0,5
1044,-11.0,-161.0,-134.0,131.0,-187.0,49.0,-30.0,-663.0,-546.0,5
1045,-14.0,-160.0,-133.0,115.0,-202.0,65.0,-27.0,-664.0,-529.0,5
1046,-11.0,-169.0,-128.0,102.0,-216.0,82.0,-32.0,-682.0,-521.0,5
1047,-10.0,-171.0,-128.0,102.0,-226.0,93.0,-39.0,-698.0,-507.0,5
1048,-11.0,-177.0,-126.0,108.0,-235.0,101.0,-47.0,-713.0,-508.0,5
1049,-15.0,-179.0,-126.0,119.0,-238.0,108.0,-48.0,-731.0,-504.0,5
1050,-16.0,-184.0,-128.0,130.0,-243.0,107.0,-54.0,-755.0,-492.0,5
1051,-13.0,-189.0,-125.0,143.0,-243.0,106.0,-59.0,-780.0,-488.0,5
1052,-16.0,-196.0,-123.0,157.0,-243.0,100.0,-66.0,-795.0,-486.0,5
1053,-18.0,-204.0,-124.0,173.0,-242.0,92.0,-71.0,-811.0,-484.0,5
1054,-21.0,-201.0,-129.0,190.0,-238.0,82.0,-75.0,-833.0,-483.0,5
1055,-25.0,-212.0,-120.0,210.0,-230.0,75.0,-72.0,-858.0,-485.0,5
1056,-17.0,-215.0,-121.0,234.0,-224.0,65.0,-81.0,-868.0,-485.0,5
1057,-21.0,-217.0,-125.0,257.0,-218.0,54.0,-77.0,-877.0,-488.0,5
1058,-21.0,-220.0,-121.0,282.0,-206.0,41.0,-64.0,-895.0,-490.0,5
1059,-17.0,-224.0,-124.0,308.0,-200.0,29.0,-59.0,-900.0,-491.0,5
1060,-17.0,-222.0,-121.0,334.0,-195.0,16.0,-55.0,-907.0,-485.0,5
1061,-12.0,-224.0,-120.0,365.0,-195.0,3.0,-38.0,-909.0,-488.0,5
1062,-9.0,-221.0,-117.0,397.0,-205.0,-5.0,-34.0,-900.0,-468.0,5
1063,-7.0,-219.0,-115.0,427.0,-216.0,-15.0,-27.0,-887.0,-466.0,5
1064,-6.0,-212.0,-111.0,460.0,-229.0,-22.0,-16.0,-870.0,-453.0,5
1065,-9.0,-207.0,-118.0,489.0,-243.0,-30.0,-15.0,-847.0,-445.0,5
1066,-6.0,-205.0,-111.0,506.0,-259.0,-29.0,-14.0,-833.0,-436.0,5
1067,-7.0,-203.0,-106.0,513.0,-277.0,-24.0,-27.0,-820.0,-425.0,5
1068,-12.0,-200.0,-105.0,516.0,-301.0,-17.0,-40.0,-808.0,-412.0,5
1069,-13.0,-194.0,-97.0,517.0,-332.0,-9.0,-47.0,-797.0,-406.0,5
1070,-20.0,-191.0,-99.0,516.0,-362.0,-1.0,-62.0,-784.0,-398.0,5
1071,-22.0,-191.0,-101.0,503.0,-391.0,11.0,-81.0,-771.0,-395.0,5
1072,-25.0,-189.0,-103.0,488.0,-424.0,28.0,-100.0,-774.0,-394.0,5
1073,-37.0,-185.0,-98.0,472.0,-459.0,50.0,-127.0,-766.0,-381.0,5
1074,-41.0,-188.0,-95.0,458.0,-496.0,75.0,-157.0,-767.0,-374.0,5
1075,-45.0,-189.0,-100.0,447.0,-532.0,101.0,-158.0,-775.0,-386.0,5
1076,-46.0,-190.0,-105.0,436.0,-563.0,122.0,-159.0,-784.0,-388.0,5
1077,-44.0,-193.0,-97.0,418.0,-588.0,145.0,-164.0,-788.0,-382.0,5
1078,-44.0,-194.0,-98.0,402.0,-608.0,166.0,-168.0,-796.0,-389.0,5
1079,-44.0,-197.0,-95.0,387.0,-628.0,181.0,-169.0,-805.0,-387.0,5
1080,-45.0,-196.0,-101.0,376.0,-655.0,182.0,-180.0,-809.0,-392.0,5
1081,-40.0,-199.0,-97.0,361.0,-681.0,187.0,-159.0,-808.0,-393.0,5
1082,-39.0,-197.0,-94.0,347.0,-700.0,183.0,-145.0,-810.0,-389.0,5
1083,-36.0,-194.0,-93.0,335.0,-718.0,173.0,-130.0,-796.0,-365.0,5
1084,-36.0,-194.0,-94.0,328.0,-732.0,154.0,-136.0,-788.0,-364.0,5
1085,-36.0,-192.0,-88.0,315.0,-739.0,134.0,-146.0,-781.0,-355.0,5
1086,-39.0,-191.0,-78.0,297.0,-746.0,123.0,-151.0,-785.0,-320.0,5
1087,-33.0,-192.0,-76.0,284.0,-752.0,114.0,-139.0,-782.0,-307.0,5
1088,-32.0,-192.0,-76.0,274.0,-755.0,100.0,-121.0,-796.0,-302.0,5
1089,-25.0,-193.0,-71.0,270.0,-751.0,80.0,-105.0,-792.0,-290.0,5
1090,-23.0,-195.0,-72.0,270.0,-738.0,60.0,-86.0,-801.0,-274.0,5
1091,-14.0,-200.0,-70.0,278.0,-717.0,36.0,-59.0,-810.0,-276.0,5
1092,-6.0,-200.0,-69.0,288.0,-685.0,8.0,-39.0,-819.0,-263.0,5
1093,-6.0,-203.0,-65.0,301.0,-646.0,-28.0,-29.0,-823.0,-253.0,5
1094,-3.0,-205.0,-67.0,319.0,-602.0,-60.0,-22.0,-831.0,-245.0,5
1095,-5.0,-205.0,-65.0,337.0,-557.0,-93.0,-14.0,-838.0,-241.0,5
1096,-5.0,-206.0,-61.0,348.0,-516.0,-127.0,-30.0,-850.0,-227.0,5
1097,-5.0,-209.0,-58.0,357.0,-478.0,-158.0,-28.0,-851.0,-230.0,5
1098,-8.0,-215.0,-63.0,362.0,-444.0,-192.0,-40.0,-849.0,-223.0,5
1099,-12.0,-205.0,-57.0,367.0,-410.0,-219.0,-47.0,-849.0,-217.0,5
1100,-13.0,-206.0,-52.0,371.0,-380.0,-238.0,-56.0,-837.0,-208.0,5
1101,-16.0,-205.0,-55.0,369.0,-351.0,-255.0,-77.0,-830.0,-210.0,5
1102,-22.0,-204.0,-52.0,358.0,-328.0,-267.0,-86.0,-831.0,-208.0,5
1103,-21.0,-204.0,-49.0,338.0,-305.0,-269.0,-95.0,-832.0,-199.0,5
1104,-20.0,-202.0,-50.0,313.0,-282.0,-270.0,-96.0,-828.0,-202.0,5
1105,-25.0,-200.0,-50.0,284.0,-263.0,-267.0,-96.0,-830.0,-200.0,5
1106,-21.0,-202.0,-52.0,247.0,-248.0,-262.0,-98.0,-833.0,-201.0,5
1107,-23.0,-201.0,-58.0,204.0,-238.0,-259.0,-88.0,-839.0,-201.0,5
1108,-26.0,-201.0,-59.0,157.0,-233.0,-254.0,-93.0,-844.0,-217.0,5
1109,-25.0,-202.0,-57.0,109.0,-229.0,-248.0,-92.0,-856.0,-218.0,5
1110,-19.0,-211.0,-58.0,62.0,-224.0,-243.0,-83.0,-862.0,-223.0,5
1111,-18.0,-212.0,-64.0,11.0,-214.0,-238.0,-79.0,-875.0,-241.0,5
1112,-13.0,-215.0,-63.0,-27.0,-200.0,-231.0,-63.0,-893.0,-252.0,5
1113,-13.0,-219.0,-65.0,-60.0,-181.0,-227.0,-44.0,-907.0,-262.0,5
1114,-8.0,-225.0,-72.0,-88.0,-160.0,-224.0,-38.0,-914.0,-263.0,5
1115,-9.0,-223.0,-71.0,-116.0,-135.0,-217.0,-26.0,-922.0,-279.0,5
1116,-2.0,-230.0,-74.0,-139.0,-110.0,-208.0,-9.0,-930.0,-290.0,5
1117,4.0,-231.0,-75.0,-154.0,-77.0,-201.0,3.0,-945.0,-291.0,5
1118,5.0,-236.0,-72.0,-160.0,-40.0,-190.0,14.0,-957.0,-299.0,5
1119,5.0,-240.0,-79.0,-154.0,-3.0,-173.0,27.0,-975.0,-303.0,5
1120,3.0,-236.0,-80.0,-140.0,34.0,-162.0,23.0,-986.0,-304.0,5
1121,10.0,-245.0,-84.0,-117.0,71.0,-150.0,42.0,-989.0,-330.0,5
1122,6.0,-243.0,-93.0,-93.0,107.0,-137.0,29.0,-994.0,-348.0,5
1123,6.0,-241.0,-98.0,-67.0,142.0,-122.0,24.0,-976.0,-382.0,5
1124,2.0,-239.0,-109.0,-49.0,176.0,-108.0,12.0,-978.0,-420.0,5
1125,-3.0,-234.0,-115.0,-43.0,212.0,-91.0,1.0,-977.0,-462.0,5
1126,-6.0,-241.0,-121.0,-50.0,243.0,-78.0,-21.0,-981.0,-491.0,5
1127,-17.0,-242.0,-126.0,-70.0,259.0,-67.0,-44.0,-990.0,-509.0,5
1128,-16.0,-249.0,-127.0,-96.0,257.0,-57.0,-72.0,-1009.0,-510.0,5
1129,-22.0,-255.0,-126.0,-121.0,238.0,-39.0,-92.0,-1044.0,-509.0,5
1130,-36.0,-259.0,-123.0,-139.0,212.0,-21.0,-118.0,-1070.0,-493.0,5
1131,-42.0,-268.0,-114.0,-141.0,174.0,0.0,-154.0,-1094.0,-475.0,5
1132,-47.0,-272.0,-116.0,-133.0,138.0,28.0,-183.0,-1116.0,-454.0,5
1133,-60.0,-279.0,-108.0,-112.0,104.0,61.0,-225.0,-1147.0,-429.0,5
1134,-68.0,-287.0,-105.0,-87.0,78.0,97.0,-260.0,-1162.0,-415.0,5
1135,-77.0,-288.0,-102.0,-66.0,62.0,135.0,-304.0,-1175.0,-402.0,5
1136,-89.0,-291.0,-98.0,-54.0,50.0,170.0,-345.0,-1179.0,-395.0,5
1137,-93.0,-295.0,-100.0,-53.0,38.0,207.0,-376.0,-1187.0,-386.0,5
1138,-99.0,-295.0,-92.0,-58.0,26.0,248.0,-402.0,-1207.0,-387.0,5
1139,-103.0,-302.0,-98.0,-67.0,13.0,289.0,-409.0,-1224.0,-382.0,5
1140,-99.0,-305.0,-91.0,-73.0,-3.0,335.0,-400.0,-1250.0,-377.0,5
1141,-94.0,-318.0,-89.0,-75.0,-23.0,378.0,-373.0,-1278.0,-368.0,5
1142,-89.0,-319.0,-90.0,-72.0,-48.0,414.0,-341.0,-1298.0,-359.0,5
1143,-79.0,-323.0,-94.0,-64.0,-82.0,443.0,-304.0,-1320.0,-363.0,5
1144,-69.0,-323.0,-101.0,-52.0,-118.0,463.0,-267.0,-1329.0,-383.0,5
1145,-61.0,-323.0,-99.0,-40.0,-154.0,472.0,-236.0,-1326.0,-396.0,5
1146,-49.0,-321.0,-106.0,-28.0,-189.0,468.0,-197.0,-1309.0,-433.0,5
1147,-42.0,-319.0,-114.0,-16.0,-222.0,449.0,-152.0,-1280.0,-445.0,5
1148,-33.0,-312.0,-117.0,-6.0,-251.0,413.0,-102.0,-1260.0,-467.0,5
1149,-21.0,-299.0,-122.0,2.0,-271.0,365.0,-64.0,-1221.0,-469.0,5
1150,-15.0,-289.0,-122.0,11.0,-281.0,312.0,-44.0,-1182.0,-485.0,5
1151,-10.0,-281.0,-124.0,18.0,-275.0,258.0,-29.0,-1152.0,-487.0,5
1152,-11.0,-271.0,-126.0,17.0,-259.0,202.0,-37.0,-1114.0,-502.0,5
1153,-14.0,-268.0,-128.0,-2.0,-233.0,146.0,-49.0,-1097.0,-519.0,5
1154,-19.0,-264.0,-137.0,-37.0,-198.0,92.0,-75.0,-1089.0,-538.0,5
1155,-28.0,-266.0,-142.0,-88.0,-153.0,36.0,-110.0,-1095.0,-561.0,5
1156,-38.0,-268.0,-144.0,-156.0,-97.0,-16.0,-138.0,-1114.0,-575.0,5
1157,-44.0,-275.0,-148.0,-237.0,-38.0,-66.0,-168.0,-1129.0,-588.0,5
1158,-47.0,-284.0,-154.0,-321.0,18.0,-109.0,-187.0,-1156.0,-607.0,5
1159,-53.0,-295.0,-158.0,-407.0,75.0,-142.0,-210.0,-1188.0,-628.0,5
1160,-62.0,-305.0,-161.0,-491.0,131.0,-176.0,-233.0,-1234.0,-655.0,5
1161,-66.0,-310.0,-163.0,-565.0,186.0,-206.0,-252.0,-1268.0,-672.0,5
1162,-70.0,-316.0,-175.0,-614.0,235.0,-232.0,-267.0,-1283.0,-687.0,5
1163,-70.0,-319.0,-173.0,-638.0,281.0,-253.0,-267.0,-1308.0,-701.0,5
1164,-70.0,-323.0,-185.0,-639.0,325.0,-278.0,-266.0,-1326.0,-729.0,5
1165,-72.0,-325.0,-192.0,-629.0,370.0,-299.0,-270.0,-1323.0,-758.0,5
1166,-69.0,-323.0,-196.0,-610.0,410.0,-327.0,-263.0,-1312.0,-786.0,5
1167,-67.0,-317.0,-199.0,-583.0,444.0,-348.0,-251.0,-1282.0,-777.0,5
1168,-63.0,-309.0,-195.0,-538.0,471.0,-364.0,-252.0,-1257.0,-781.0,5
1169,-62.0,-303.0,-189.0,-472.0,498.0,-368.0,-235.0,-1215.0,-767.0,5
1170,-61.0,-291.0,-183.0,-382.0,514.0,-366.0,-225.0,-1162.0,-740.0,5
1171,-59.0,-272.0,-178.0,-254.0,524.0,-355.0,-198.0,-1102.0,-723.0,5
1172,-45.0,-255.0,-173.0,-140.0,534.0,-339.0,-176.0,-1024.0,-688.0,5
1173,-32.0,-239.0,-166.0,-29.0,544.0,-313.0,-133.0,-945.0,-662.0,5
1174,-28.0,-211.0,-154.0,68.0,542.0,-284.0,-101.0,-872.0,-630.0,5
1175,-17.0,-198.0,-152.0,150.0,525.0,-254.0,-55.0,-792.0,-616.0,5
1176,-10.0,-181.0,-144.0,214.0,501.0,-224.0,-13.0,-732.0,-593.0,5
1177,0.0,-165.0,-141.0,258.0,475.0,-193.0,15.0,-670.0,-565.0,5
1178,12.0,-154.0,-134.0,284.0,443.0,-164.0,51.0,-633.0,-528.0,5
1179,25.0,-146.0,-118.0,292.0,432.0,-146.0,116.0,-625.0,-488.0,5
1180,26.0,-141.0,-121.0,298.0,413.0,-132.0,119.0,-587.0,-482.0,5
1181,36.0,-144.0,-116.0,302.0,374.0,-113.0,149.0,-586.0,-458.0,5
1182,41.0,-151.0,-110.0,308.0,333.0,-102.0,168.0,-607.0,-449.0,5
1183,40.0,-154.0,-106.0,321.0,301.0,-92.0,164.0,-623.0,-435.0,5
1184,33.0,-160.0,-113.0,345.0,275.0,-81.0,147.0,-656.0,-441.0,5
1185,30.0,-164.0,-111.0,371.0,258.0,-71.0,125.0,-675.0,-442.0,5
1186,22.0,-173.0,-116.0,394.0,255.0,-56.0,88.0,-696.0,-455.0,5
1187,11.0,-177.0,-116.0,413.0,257.0,-42.0,59.0,-711.0,-469.0,5
1188,5.0,-179.0,-119.0,424.0,266.0,-25.0,19.0,-737.0,-473.0,5
1189,-3.0,-186.0,-118.0,431.0,274.0,-17.0,-5.0,-751.0,-460.0,5
1190,-8.0,-189.0,-113.0,438.0,276.0,-12.0,-27.0,-775.0,-448.0,5
1191,-13.0,-193.0,-110.0,446.0,274.0,-9.0,-48.0,-788.0,-444.0,5
1192,-21.0,-199.0,-108.0,455.0,269.0,-8.0,-76.0,-809.0,-432.0,5
1193,-30.0,-200.0,-108.0,469.0,262.0,-4.0,-100.0,-819.0,-422.0,5
1194,-23.0,-206.0,-106.0,482.0,259.0,-1.0,-105.0,-835.0,-422.0,5
1195,-27.0,-210.0,-109.0,489.0,261.0,-2.0,-117.0,-851.0,-424.0,5
1196,-36.0,-208.0,-103.0,489.0,265.0,-4.0,-127.0,-861.0,-413.0,5
1197,-41.0,-210.0,-106.0,488.0,259.0,-7.0,-149.0,-862.0,-414.0,5
1198,-44.0,-210.0,-104.0,481.0,240.0,-11.0,-160.0,-872.0,-421.0,5
1199,-47.0,-211.0,-99.0,472.0,210.0,-21.0,-178.0,-872.0,-411.0,5
1200,-46.0,-213.0,-106.0,460.0,171.0,-31.0,-172.0,-867.0,-413.0,5
1201,-47.0,-213.0,-104.0,445.0,132.0,-44.0,-170.0,-872.0,-420.0,5
1202,-48.0,-216.0,-98.0,430.0,90.0,-57.0,-170.0,-872.0,-408.0,5
1203,-44.0,-216.0,-102.0,428.0,47.0,-65.0,-162.0,-870.0,-404.0,5
1204,-42.0,-217.0,-100.0,435.0,8.0,-62.0,-148.0,-875.0,-408.0,5
1205,-35.0,-215.0,-104.0,445.0,-24.0,-61.0,-127.0,-879.0,-406.0,5
1206,-30.0,-210.0,-105.0,454.0,-51.0,-63.0,-109.0,-870.0,-413.0,5
1207,-22.0,-208.0,-111.0,455.0,-76.0,-71.0,-88.0,-859.0,-431.0,5
1208,-16.0,-208.0,-107.0,445.0,-96.0,-79.0,-48.0,-846.0,-439.0,5
1209,-10.0,-204.0,-113.0,428.0,-114.0,-90.0,-33.0,-837.0,-443.0,5
1210,-4.0,-205.0,-111.0,408.0,-124.0,-98.0,-7.0,-826.0,-438.0,5
1211,-1.0,-200.0,-107.0,391.0,-130.0,-104.0,10.0,-825.0,-433.0,5
1212,9.0,-203.0,-110.0,382.0,-131.0,-116.0,35.0,-827.0,-423.0,5
1213,12.0,-201.0,-110.0,375.0,-123.0,-127.0,47.0,-822.0,-422.0,5
1214,12.0,-201.0,-102.0,370.0,-114.0,-139.0,48.0,-807.0,-410.0,5
1215,14.0,-197.0,-99.0,369.0,-101.0,-150.0,65.0,-805.0,-404.0,5
1216,13.0,-198.0,-106.0,369.0,-89.0,-153.0,66.0,-801.0,-398.0,5
1217,11.0,-195.0,-100.0,368.0,-80.0,-152.0,60.0,-801.0,-400.0,5
1218,12.0,-194.0,-98.0,364.0,-72.0,-153.0,57.0,-789.0,-398.0,5
1219,11.0,-193.0,-102.0,355.0,-64.0,-148.0,54.0,-795.0,-402.0,5
1220,11.0,-194.0,-101.0,341.0,-52.0,-147.0,44.0,-794.0,-390.0,5
1221,8.0,-195.0,-94.0,325.0,-34.0,-143.0,45.0,-802.0,-373.0,5
1222,7.0,-199.0,-98.0,313.0,-12.0,-142.0,32.0,-814.0,-370.0,5
1223,7.0,-202.0,-89.0,304.0,9.0,-144.0,32.0,-820.0,-365.0,5
1224,5.0,-206.0,-92.0,293.0,33.0,-153.0,27.0,-845.0,-366.0,5
1225,6.0,-208.0,-90.0,278.0,60.0,-163.0,26.0,-851.0,-374.0,5
1226,6.0,-207.0,-93.0,263.0,91.0,-176.0,30.0,-853.0,-366.0,5
1227,6.0,-212.0,-94.0,252.0,123.0,-195.0,32.0,-863.0,-379.0,5
1228,8.0,-211.0,-93.0,247.0,156.0,-208.0,39.0,-869.0,-385.0,5
1229,10.0,-213.0,-96.0,240.0,189.0,-223.0,41.0,-882.0,-389.0,5
1230,13.0,-214.0,-98.0,236.0,228.0,-236.0,48.0,-874.0,-386.0,5
1231,13.0,-210.0,-97.0,237.0,256.0,-246.0,49.0,-867.0,-396.0,5
1232,12.0,-209.0,-103.0,238.0,282.0,-255.0,48.0,-859.0,-400.0,5
1233,11.0,-208.0,-98.0,237.0,301.0,-265.0,43.0,-840.0,-403.0,5
1234,10.0,-203.0,-98.0,228.0,315.0,-271.0,40.0,-831.0,-401.0,5
1235,11.0,-204.0,-96.0,219.0,325.0,-269.0,49.0,-825.0,-380.0,5
1236,17.0,-201.0,-99.0,210.0,335.0,-264.0,58.0,-811.0,-376.0,5
1237,15.0,-197.0,-88.0,203.0,339.0,-261.0,70.0,-807.0,-365.0,5
1238,15.0,-199.0,-89.0,199.0,345.0,-258.0,72.0,-806.0,-339.0,5
1239,17.0,-191.0,-83.0,201.0,349.0,-258.0,79.0,-815.0,-318.0,5
1240,23.0,-198.0,-79.0,206.0,351.0,-260.0,85.0,-813.0,-314.0,5
1241,24.0,-195.0,-75.0,213.0,352.0,-262.0,91.0,-813.0,-302.0,5
1242,21.0,-197.0,-73.0,224.0,351.0,-265.0,93.0,-808.0,-297.0,5
1243,20.0,-200.0,-77.0,232.0,350.0,-274.0,87.0,-817.0,-293.0,5
1244,18.0,-198.0,-76.0,241.0,349.0,-279.0,77.0,-813.0,-288.0,5
1245,14.0,-200.0,-75.0,249.0,347.0,-287.0,71.0,-814.0,-285.0,5
1246,9.0,-201.0,-73.0,258.0,343.0,-294.0,52.0,-817.0,-284.0,5
1247,5.0,-205.0,-74.0,268.0,339.0,-296.0,34.0,-825.0,-302.0,5
1248,1.0,-204.0,-78.0,275.0,332.0,-296.0,21.0,-831.0,-296.0,5
1249,-3.0,-203.0,-80.0,280.0,319.0,-295.0,-11.0,-828.0,-301.0,5
1250,-7.0,-204.0,-81.0,287.0,305.0,-286.0,-33.0,-827.0,-312.0,5
1251,-13.0,-198.0,-76.0,289.0,288.0,-273.0,-54.0,-819.0,-311.0,5
1252,-20.0,-198.0,-77.0,285.0,267.0,-255.0,-70.0,-807.0,-311.0,5
1253,-21.0,-198.0,-76.0,284.0,244.0,-237.0,-80.0,-805.0,-311.0,5
1254,-23.0,-198.0,-82.0,282.0,221.0,-216.0,-96.0,-800.0,-313.0,5
1255,-29.0,-196.0,-76.0,271.0,198.0,-193.0,-105.0,-802.0,-312.0,5
1256,-28.0,-196.0,-76.0,250.0,174.0,-172.0,-108.0,-804.0,-305.0,5
1257,-27.0,-203.0,-75.0,230.0,144.0,-154.0,-107.0,-814.0,-291.0,5
1258,-25.0,-200.0,-75.0,214.0,110.0,-145.0,-100.0,-827.0,-279.0,5
1259,-23.0,-203.0,-71.0,201.0,76.0,-141.0,-94.0,-831.0,-279.0,5
1260,-26.0,-208.0,-73.0,194.0,47.0,-143.0,-89.0,-855.0,-272.0,5
1261,-17.0,-213.0,-69.0,186.0,28.0,-147.0,-68.0,-868.0,-273.0,5
1262,-15.0,-215.0,-67.0,175.0,11.0,-153.0,-53.0,-886.0,-274.0,5
1263,-12.0,-221.0,-72.0,165.0,-5.0,-157.0,-43.0,-910.0,-275.0,5
1264,-5.0,-224.0,-73.0,156.0,-17.0,-162.0,-16.0,-918.0,-273.0,5
1265,-1.0,-230.0,-69.0,151.0,-28.0,-171.0,1.0,-935.0,-279.0,5
1266,5.0,-231.0,-74.0,147.0,-33.0,-180.0,10.0,-941.0,-278.0,5
1267,7.0,-236.0,-67.0,150.0,-37.0,-183.0,28.0,-952.0,-274.0,5
1268,9.0,-238.0,-70.0,160.0,-41.0,-187.0,33.0,-955.0,-267.0,5
1269,12.0,-242.0,-69.0,175.0,-46.0,-187.0,51.0,-972.0,-267.0,5
1270,16.0,-242.0,-62.0,196.0,-47.0,-184.0,59.0,-967.0,-262.0,5
1271,12.0,-232.0,-62.0,218.0,-46.0,-178.0,68.0,-967.0,-244.0,5
1272,18.0,-233.0,-63.0,237.0,-47.0,-172.0,78.0,-964.0,-239.0,5
1273,24.0,-235.0,-62.0,254.0,-52.0,-163.0,88.0,-957.0,-229.0,5
1274,24.0,-229.0,-58.0,265.0,-53.0,-154.0,92.0,-950.0,-216.0,5
1275,25.0,-232.0,-56.0,267.0,-54.0,-142.0,102.0,-946.0,-205.0,5
1276,29.0,-230.0,-56.0,264.0,-53.0,-127.0,105.0,-940.0,-206.0,5
1277,28.0,-229.0,-52.0,254.0,-47.0,-113.0,108.0,-935.0,-200.0,5
1278,26.0,-223.0,-55.0,244.0,-38.0,-97.0,107.0,-925.0,-202.0,5
1279,28.0,-226.0,-56.0,226.0,-26.0,-82.0,108.0,-920.0,-205.0,5
1280,26.0,-225.0,-54.0,206.0,-9.0,-69.0,105.0,-921.0,-203.0,5
1281,27.0,-218.0,-56.0,186.0,9.0,-55.0,104.0,-911.0,-201.0,5
1282,29.0,-221.0,-56.0,162.0,23.0,-44.0,91.0,-912.0,-202.0,5
1283,23.0,-221.0,-56.0,138.0,39.0,-34.0,85.0,-912.0,-203.0,5
1284,20.0,-223.0,-55.0,115.0,52.0,-22.0,76.0,-916.0,-203.0,5
1285,19.0,-224.0,-53.0,93.0,63.0,-11.0,69.0,-918.0,-203.0,5
1286,16.0,-225.0,-54.0,74.0,72.0,-1.0,57.0,-921.0,-204.0,5
1287,10.0,-222.0,-54.0,59.0,79.0,11.0,46.0,-922.0,-201.0,5
1288,9.0,-225.0,-54.0,44.0,88.0,24.0,42.0,-930.0,-201.0,5
1289,11.0,-227.0,-54.0,32.0,92.0,39.0,33.0,-931.0,-200.0,5
1290,9.0,-230.0,-52.0,20.0,99.0,54.0,39.0,-936.0,-195.0,5
1291,7.0,-232.0,-52.0,10.0,107.0,66.0,36.0,-943.0,-190.0,5
1292,10.0,-234.0,-54.0,4.0,112.0,74.0,36.0,-955.0,-181.0,5
1293,6.0,-238.0,-50.0,1.0,115.0,78.0,33.0,-966.0,-178.0,5
1294,8.0,-236.0,-44.0,2.0,112.0,81.0,30.0,-966.0,-180.0,5
1295,9.0,-238.0,-50.0,4.0,113.0,85.0,30.0,-965.0,-179.0,5
1296,8.0,-235.0,-47.0,3.0,113.0,88.0,33.0,-966.0,-183.0,5
1297,6.0,-234.0,-49.0,1.0,115.0,93.0,38.0,-959.0,-187.0,5
1298,13.0,-234.0,-47.0,-4.0,116.0,99.0,34.0,-947.0,-180.0,5
1299,9.0,-232.0,-50.0,-9.0,116.0,104.0,43.0,-941.0,-186.0,5
1300,13.0,-225.0,-49.0,-17.0,118.0,110.0,46.0,-929.0,-194.0,5
1301,10.0,-221.0,-56.0,-30.0,119.0,115.0,47.0,-918.0,-202.0,5
1302,12.0,-221.0,-50.0,-48.0,121.0,120.0,56.0,-911.0,-193.0,5
1303,8.0,-214.0,-53.0,-68.0,121.0,123.0,60.0,-908.0,-190.0,5
1304,15.0,-215.0,-55.0,-91.0,119.0,121.0,68.0,-897.0,-183.0,5
1305,15.0,-221.0,-44.0,-111.0,121.0,116.0,69.0,-887.0,-188.0,5
1306,21.0,-212.0,-52.0,-130.0,127.0,113.0,87.0,-875.0,-185.0,5
1307,24.0,-212.0,-47.0,-147.0,132.0,105.0,76.0,-860.0,-187.0,5
1308,23.0,-207.0,-54.0,-162.0,137.0,98.0,86.0,-851.0,-190.0,5
1309,27.0,-206.0,-53.0,-179.0,146.0,87.0,98.0,-845.0,-193.0,5
1310,20.0,-202.0,-54.0,-201.0,157.0,75.0,92.0,-839.0,-200.0,5
1311,21.0,-202.0,-52.0,-226.0,167.0,66.0,90.0,-831.0,-207.0,5
1312,24.0,-202.0,-56.0,-256.0,172.0,54.0,87.0,-826.0,-221.0,5
1313,24.0,-202.0,-58.0,-291.0,177.0,46.0,72.0,-831.0,-230.0,5
1314,7.0,-202.0,-66.0,-336.0,171.0,46.0,37.0,-850.0,-254.0,5
1315,6.0,-207.0,-67.0,-396.0,145.0,55.0,16.0,-851.0,-264.0,5
1316,-4.0,-205.0,-71.0,-449.0,109.0,59.0,-7.0,-864.0,-273.0,5
1317,-8.0,-212.0,-76.0,-485.0,73.0,60.0,-19.0,-868.0,-290.0,5
1318,-22.0,-222.0,-81.0,-517.0,43.0,65.0,-81.0,-909.0,-315.0,5
1319,-27.0,-232.0,-85.0,-555.0,-1.0,100.0,-98.0,-945.0,-333.0,5
1320,-31.0,-237.0,-92.0,-602.0,-68.0,150.0,-107.0,-976.0,-370.0,5
1321,-16.0,-244.0,-101.0,-637.0,-152.0,214.0,-45.0,-982.0,-386.0,5
1322,-10.0,-240.0,-117.0,-647.0,-235.0,260.0,-27.0,-975.0,-446.0,5
1323,2.0,-234.0,-120.0,-640.0,-313.0,278.0,28.0,-949.0,-473.0,5
1324,13.0,-227.0,-124.0,-607.0,-371.0,261.0,70.0,-923.0,-496.0,5
1325,20.0,-224.0,-125.0,-539.0,-415.0,228.0,88.0,-904.0,-494.0,5
1326,31.0,-226.0,-122.0,-441.0,-432.0,204.0,123.0,-911.0,-456.0,5
1327,37.0,-227.0,-109.0,-324.0,-402.0,183.0,143.0,-917.0,-426.0,5
1328,38.0,-227.0,-105.0,-215.0,-339.0,163.0,138.0,-914.0,-405.0,5
1329,33.0,-221.0,-104.0,-139.0,-264.0,147.0,131.0,-907.0,-407.0,5
1330,36.0,-221.0,-109.0,-109.0,-194.0,138.0,134.0,-905.0,-418.0,5
1331,34.0,-220.0,-106.0,-121.0,-130.0,133.0,133.0,-906.0,-410.0,5
1332,36.0,-225.0,-104.0,-155.0,-74.0,131.0,136.0,-922.0,-395.0,5
1333,36.0,-228.0,-99.0,-198.0,-27.0,128.0,153.0,-946.0,-387.0,5
1334,43.0,-239.0,-98.0,-230.0,15.0,122.0,168.0,-979.0,-385.0,5
1335,51.0,-253.0,-102.0,-245.0,50.0,119.0,181.0,-1015.0,-378.0,5
1336,52.0,-263.0,-97.0,-250.0,78.0,124.0,193.0,-1066.0,-383.0,5
1337,47.0,-269.0,-101.0,-243.0,101.0,129.0,191.0,-1094.0,-388.0,5
1338,52.0,-276.0,-105.0,-227.0,122.0,140.0,195.0,-1126.0,-402.0,5
1339,52.0,-283.0,-106.0,-210.0,140.0,148.0,197.0,-1148.0,-418.0,5
1340,50.0,-291.0,-108.0,-192.0,148.0,150.0,195.0,-1169.0,-427.0,5
1341,48.0,-288.0,-112.0,-172.0,145.0,149.0,189.0,-1175.0,-419.0,5
1342,43.0,-292.0,-104.0,-145.0,144.0,141.0,171.0,-1178.0,-417.0,5
1343,35.0,-289.0,-101.0,-113.0,146.0,124.0,148.0,-1176.0,-397.0,5
1344,27.0,-288.0,-98.0,-79.0,153.0,105.0,113.0,-1170.0,-374.0,5
1345,14.0,-284.0,-93.0,-49.0,167.0,84.0,77.0,-1165.0,-364.0,5
1346,13.0,-284.0,-88.0,-24.0,189.0,60.0,44.0,-1153.0,-343.0,5
1347,5.0,-286.0,-89.0,-12.0,216.0,32.0,11.0,-1146.0,-325.0,5
1348,-6.0,-280.0,-80.0,-14.0,252.0,-2.0,-11.0,-1145.0,-314.0,5
1349,-10.0,-279.0,-74.0,-27.0,290.0,-34.0,-35.0,-1145.0,-298.0,5
1350,-16.0,-280.0,-70.0,-50.0,332.0,-72.0,-52.0,-1146.0,-270.0,5
1351,-16.0,-284.0,-67.0,-77.0,376.0,-115.0,-64.0,-1157.0,-253.0,5
1352,-18.0,-290.0,-64.0,-107.0,415.0,-173.0,-74.0,-1173.0,-242.0,5
1353,-21.0,-295.0,-59.0,-138.0,442.0,-224.0,-84.0,-1192.0,-225.0,5
1354,-24.0,-299.0,-57.0,-162.0,459.0,-279.0,-92.0,-1212.0,-217.0,5
1355,-18.0,-306.0,-58.0,-179.0,474.0,-332.0,-84.0,-1233.0,-219.0,5
1356,-20.0,-310.0,-62.0,-189.0,487.0,-393.0,-82.0,-1268.0,-243.0,5
1357,-25.0,-313.0,-74.0,-196.0,498.0,-454.0,-81.0,-1281.0,-280.0,5
1358,-21.0,-319.0,-86.0,-216.0,503.0,-507.0,-81.0,-1290.0,-324.0,5
1359,-21.0,-319.0,-94.0,-242.0,497.0,-549.0,-81.0,-1304.0,-367.0,5
1360,-23.0,-318.0,-101.0,-267.0,483.0,-574.0,-82.0,-1302.0,-403.0,5
1361,-26.0,-317.0,-110.0,-285.0,459.0,-583.0,-98.0,-1288.0,-433.0,5
1362,-34.0,-309.0,-113.0,-288.0,434.0,-572.0,-115.0,-1268.0,-441.0,5
1363,-41.0,-305.0,-116.0,-276.0,409.0,-542.0,-157.0,-1234.0,-459.0,5
1364,-48.0,-294.0,-122.0,-262.0,380.0,-492.0,-177.0,-1209.0,-485.0,5
1365,-49.0,-291.0,-128.0,-256.0,350.0,-435.0,-169.0,-1184.0,-512.0,5
1366,-44.0,-286.0,-139.0,-273.0,321.0,-375.0,-169.0,-1161.0,-552.0,5
1367,-43.0,-279.0,-153.0,-318.0,296.0,-310.0,-156.0,-1147.0,-613.0,5
1368,-38.0,-273.0,-168.0,-400.0,272.0,-239.0,-132.0,-1134.0,-670.0,5
1369,-29.0,-276.0,-185.0,-513.0,239.0,-176.0,-108.0,-1133.0,-729.0,5
1370,-14.0,-280.0,-185.0,-649.0,199.0,-124.0,-17.0,-1174.0,-774.0,5
1371,4.0,-295.0,-199.0,-802.0,164.0,-66.0,45.0,-1230.0,-791.0,5
1372,24.0,-318.0,-198.0,-946.0,145.0,-10.0,101.0,-1311.0,-804.0,5
1373,43.0,-341.0,-195.0,-1054.0,147.0,42.0,168.0,-1393.0,-773.0,5
1374,53.0,-360.0,-185.0,-1124.0,155.0,97.0,219.0,-1459.0,-755.0,5
1375,63.0,-375.0,-179.0,-1154.0,158.0,149.0,247.0,-1523.0,-748.0,5
1376,65.0,-387.0,-183.0,-1147.0,145.0,219.0,275.0,-1567.0,-736.0,5
1377,74.0,-391.0,-182.0,-1109.0,116.0,309.0,305.0,-1577.0,-742.0,5
1378,81.0,-382.0,-188.0,-1054.0,89.0,419.0,330.0,-1539.0,-750.0,5
1379,84.0,-366.0,-191.0,-990.0,66.0,548.0,350.0,-1493.0,-775.0,5
1380,86.0,-357.0,-198.0,-928.0,39.0,679.0,358.0,-1436.0,-793.0,5
1381,85.0,-339.0,-199.0,-855.0,9.0,802.0,361.0,-1376.0,-808.0,5
1382,80.0,-323.0,-197.0,-777.0,-22.0,905.0,343.0,-1308.0,-795.0,5
1383,71.0,-306.0,-188.0,-693.0,-56.0,982.0,311.0,-1235.0,-770.0,5
1384,62.0,-290.0,-185.0,-608.0,-85.0,1035.0,268.0,-1174.0,-748.0,5
1385,51.0,-273.0,-181.0,-520.0,-99.0,1059.0,211.0,-1101.0,-725.0,5
1386,42.0,-254.0,-176.0,-431.0,-104.0,1056.0,167.0,-1018.0,-706.0,5
1387,30.0,-233.0,-165.0,-345.0,-89.0,1027.0,124.0,-948.0,-683.0,5
1388,14.0,-217.0,-162.0,-266.0,-57.0,976.0,82.0,-893.0,-668.0,5
1389,9.0,-206.0,-160.0,-202.0,-11.0,916.0,41.0,-833.0,-643.0,5
1390,-2.0,-194.0,-149.0,-149.0,39.0,849.0,10.0,-764.0,-616.0,5
1391,-10.0,-183.0,-151.0,-103.0,83.0,773.0,-34.0,-728.0,-593.0,5
1392,-20.0,-173.0,-139.0,-63.0,115.0,695.0,-72.0,-696.0,-569.0,5
1393,-31.0,-169.0,-131.0,-28.0,138.0,617.0,-107.0,-682.0,-539.0,5
1394,-38.0,-166.0,-127.0,10.0,153.0,543.0,-135.0,-674.0,-509.0,5
1395,-46.0,-169.0,-125.0,53.0,162.0,477.0,-174.0,-681.0,-490.0,5
1396,-51.0,-171.0,-119.0,99.0,165.0,423.0,-196.0,-695.0,-465.0,5
1397,-52.0,-173.0,-109.0,149.0,165.0,378.0,-198.0,-703.0,-457.0,5
1398,-49.0,-178.0,-115.0,198.0,170.0,335.0,-189.0,-715.0,-454.0,5
1399,-48.0,-176.0,-111.0,236.0,177.0,294.0,-172.0,-725.0,-457.0,5
1400,-42.0,-182.0,-115.0,266.0,181.0,251.0,-157.0,-738.0,-455.0,5
1401,-41.0,-189.0,-120.0,284.0,179.0,213.0,-142.0,-756.0,-451.0,5
1402,-32.0,-191.0,-111.0,290.0,182.0,179.0,-124.0,-778.0,-452.0,5
1403,-30.0,-193.0,-113.0,295.0,195.0,155.0,-114.0,-790.0,-450.0,5
1404,-30.0,-196.0,-112.0,298.0,211.0,135.0,-102.0,-812.0,-447.0,5
1405,-26.0,-202.0,-114.0,298.0,217.0,120.0,-87.0,-818.0,-461.0,5
1406,-18.0,-204.0,-120.0,291.0,210.0,110.0,-74.0,-829.0,-472.0,5
1407,-12.0,-206.0,-117.0,278.0,193.0,105.0,-44.0,-840.0,-474.0,5
1408,-10.0,-211.0,-113.0,262.0,172.0,102.0,-33.0,-845.0,-479.0,5
1409,-9.0,-209.0,-115.0,257.0,148.0,106.0,-28.0,-849.0,-474.0,5
1410,-9.0,-205.0,-117.0,257.0,125.0,112.0,-23.0,-847.0,-450.0,5
1411,-6.0,-208.0,-111.0,271.0,103.0,118.0,-23.0,-836.0,-445.0,5
1412,-12.0,-200.0,-108.0,295.0,84.0,125.0,-19.0,-820.0,-432.0,5
1413,-7.0,-196.0,-104.0,329.0,70.0,128.0,-22.0,-802.0,-428.0,5
1414,-10.0,-194.0,-110.0,370.0,64.0,130.0,-20.0,-790.0,-426.0,5
1415,-11.0,-190.0,-104.0,408.0,68.0,133.0,-31.0,-779.0,-429.0,5
1416,-11.0,-189.0,-108.0,443.0,72.0,132.0,-41.0,-767.0,-435.0,5
1417,-11.0,-185.0,-108.0,475.0,82.0,123.0,-45.0,-752.0,-435.0,5
1418,-13.0,-184.0,-109.0,506.0,92.0,110.0,-55.0,-737.0,-439.0,5
1419,-19.0,-176.0,-105.0,529.0,97.0,100.0,-61.0,-713.0,-433.0,5
1420,-20.0,-172.0,-106.0,547.0,90.0,87.0,-71.0,-696.0,-429.0,5
1421,-21.0,-168.0,-104.0,558.0,76.0,77.0,-75.0,-681.0,-425.0,5
1422,-21.0,-164.0,-102.0,577.0,54.0,72.0,-75.0,-663.0,-414.0,5
1423,-17.0,-157.0,-108.0,597.0,25.0,66.0,-77.0,-639.0,-414.0,5
1424,-29.0,-150.0,-103.0,610.0,-8.0,61.0,-100.0,-625.0,-417.0,5
1425,-31.0,-148.0,-107.0,613.0,-44.0,56.0,-104.0,-609.0,-439.0,5
1426,-35.0,-140.0,-108.0,601.0,-83.0,55.0,-127.0,-588.0,-440.0,5
1427,-40.0,-141.0,-110.0,583.0,-123.0,60.0,-147.0,-578.0,-436.0,5
1428,-43.0,-137.0,-105.0,564.0,-166.0,66.0,-167.0,-568.0,-432.0,5
1429,-51.0,-136.0,-100.0,548.0,-209.0,72.0,-191.0,-560.0,-425.0,5
1430,-57.0,-139.0,-99.0,533.0,-248.0,83.0,-202.0,-561.0,-409.0,5
1431,-62.0,-134.0,-104.0,522.0,-281.0,96.0,-226.0,-566.0,-396.0,5
1432,-62.0,-139.0,-96.0,515.0,-312.0,112.0,-245.0,-573.0,-391.0,5
1433,-64.0,-141.0,-95.0,516.0,-337.0,128.0,-259.0,-575.0,-383.0,5
1434,-67.0,-141.0,-91.0,520.0,-357.0,142.0,-270.0,-580.0,-382.0,5
1435,-69.0,-139.0,-100.0,522.0,-376.0,151.0,-269.0,-580.0,-393.0,5
1436,-69.0,-138.0,-96.0,511.0,-395.0,156.0,-270.0,-580.0,-382.0,5
1437,-68.0,-143.0,-99.0,500.0,-415.0,163.0,-267.0,-583.0,-397.0,5
1438,-70.0,-141.0,-101.0,482.0,-436.0,173.0,-268.0,-589.0,-403.0,5
1439,-65.0,-142.0,-102.0,457.0,-458.0,180.0,-243.0,-590.0,-410.0,5
1440,-55.0,-146.0,-105.0,429.0,-483.0,186.0,-227.0,-592.0,-407.0,5
1441,-53.0,-144.0,-105.0,397.0,-508.0,185.0,-203.0,-594.0,-424.0,5
1442,-45.0,-144.0,-105.0,364.0,-531.0,183.0,-185.0,-608.0,-428.0,5
1443,-41.0,-151.0,-110.0,331.0,-544.0,176.0,-161.0,-620.0,-425.0,5
1444,-37.0,-162.0,-105.0,302.0,-553.0,162.0,-139.0,-630.0,-424.0,5
1445,-25.0,-164.0,-97.0,277.0,-557.0,145.0,-115.0,-646.0,-401.0,5
1446,-25.0,-160.0,-99.0,265.0,-553.0,118.0,-96.0,-662.0,-396.0,5
1447,-17.0,-171.0,-96.0,262.0,-541.0,85.0,-63.0,-688.0,-400.0,5
1448,-9.0,-176.0,-100.0,260.0,-524.0,54.0,-45.0,-705.0,-388.0,5
1449,-8.0,-178.0,-94.0,263.0,-504.0,25.0,-38.0,-728.0,-383.0,5
1450,-5.0,-185.0,-95.0,270.0,-486.0,-6.0,-19.0,-744.0,-381.0,5
1451,-4.0,-191.0,-96.0,280.0,-461.0,-44.0,-16.0,-764.0,-382.0,5
1452,0.0,-189.0,-94.0,287.0,-433.0,-81.0,6.0,-775.0,-381.0,5
1453,6.0,-193.0,-97.0,296.0,-400.0,-116.0,23.0,-785.0,-384.0,5
1454,6.0,-196.0,-104.0,303.0,-366.0,-151.0,30.0,-793.0,-385.0,5
1455,7.0,-194.0,-98.0,310.0,-326.0,-178.0,36.0,-811.0,-382.0,5
1456,9.0,-202.0,-96.0,318.0,-286.0,-197.0,33.0,-822.0,-381.0,5
1457,5.0,-203.0,-95.0,328.0,-252.0,-205.0,20.0,-822.0,-376.0,5
1458,3.0,-210.0,-92.0,340.0,-227.0,-209.0,8.0,-841.0,-367.0,5
1459,-1.0,-206.0,-90.0,351.0,-212.0,-208.0,7.0,-849.0,-356.0,5
1460,-4.0,-209.0,-86.0,363.0,-212.0,-207.0,-17.0,-860.0,-341.0,5
1461,-9.0,-210.0,-85.0,378.0,-227.0,-203.0,-34.0,-868.0,-343.0,5
1462,-13.0,-216.0,-81.0,394.0,-249.0,-191.0,-48.0,-886.0,-322.0,5
1463,-17.0,-220.0,-79.0,410.0,-274.0,-187.0,-63.0,-891.0,-312.0,5
1464,-21.0,-221.0,-78.0,422.0,-301.0,-182.0,-73.0,-909.0,-303.0,5
1465,-28.0,-224.0,-78.0,433.0,-332.0,-174.0,-97.0,-921.0,-291.0,5
1466,-33.0,-235.0,-69.0,439.0,-362.0,-165.0,-108.0,-932.0,-284.0,5
1467,-33.0,-234.0,-71.0,443.0,-386.0,-158.0,-129.0,-952.0,-273.0,5
1468,-38.0,-240.0,-67.0,447.0,-409.0,-154.0,-147.0,-972.0,-269.0,5
1469,-40.0,-247.0,-67.0,451.0,-432.0,-151.0,-157.0,-997.0,-265.0,5
1470,-43.0,-250.0,-64.0,456.0,-457.0,-154.0,-165.0,-1015.0,-257.0,5
1471,-45.0,-253.0,-68.0,460.0,-480.0,-153.0,-175.0,-1033.0,-263.0,5
1472,-48.0,-253.0,-67.0,464.0,-507.0,-151.0,-191.0,-1034.0,-250.0,5
1473,-54.0,-253.0,-66.0,467.0,-534.0,-142.0,-197.0,-1033.0,-247.0,5
1474,-48.0,-248.0,-59.0,472.0,-561.0,-135.0,-197.0,-1019.0,-241.0,5
1475,-45.0,-250.0,-60.0,477.0,-585.0,-130.0,-195.0,-1008.0,-239.0,5
1476,-46.0,-244.0,-60.0,479.0,-609.0,-128.0,-182.0,-984.0,-242.0,5
1477,-45.0,-238.0,-60.0,479.0,-630.0,-128.0,-165.0,-964.0,-223.0,5
1478,-40.0,-233.0,-57.0,472.0,-649.0,-128.0,-161.0,-953.0,-203.0,5
1479,-39.0,-228.0,-52.0,461.0,-669.0,-128.0,-138.0,-935.0,-192.0,5
1480,-35.0,-223.0,-50.0,447.0,-687.0,-129.0,-135.0,-907.0,-173.0,5
1481,-33.0,-218.0,-45.0,422.0,-700.0,-130.0,-120.0,-894.0,-173.0,5
1482,-23.0,-212.0,-41.0,392.0,-702.0,-129.0,-107.0,-869.0,-173.0,5
1483,-22.0,-206.0,-44.0,353.0,-692.0,-126.0,-94.0,-848.0,-175.0,5
1484,-19.0,-197.0,-48.0,298.0,-662.0,-122.0,-78.0,-831.0,-176.0,5
1485,-13.0,-199.0,-45.0,234.0,-628.0,-114.0,-66.0,-808.0,-187.0,5
1486,-13.0,-194.0,-49.0,162.0,-593.0,-105.0,-61.0,-797.0,-190.0,5
1487,-9.0,-191.0,-53.0,67.0,-558.0,-91.0,-43.0,-786.0,-203.0,5
1488,-3.0,-187.0,-48.0,-19.0,-523.0,-77.0,-26.0,-779.0,-219.0,5
1489,-5.0,-189.0,-58.0,-110.0,-493.0,-58.0,-18.0,-780.0,-239.0,5
1490,0.0,-191.0,-66.0,-199.0,-465.0,-41.0,3.0,-784.0,-247.0,5
1491,4.0,-192.0,-66.0,-286.0,-445.0,-29.0,15.0,-789.0,-266.0,5
1492,9.0,-194.0,-74.0,-364.0,-424.0,-19.0,29.0,-804.0,-279.0,5
1493,10.0,-199.0,-80.0,-436.0,-397.0,-10.0,41.0,-813.0,-301.0,5
1494,11.0,-204.0,-83.0,-499.0,-362.0,-1.0,47.0,-838.0,-321.0,5
1495,14.0,-210.0,-86.0,-549.0,-321.0,6.0,51.0,-879.0,-348.0,5
1496,13.0,-222.0,-94.0,-587.0,-273.0,4.0,50.0,-909.0,-362.0,5
1497,13.0,-236.0,-96.0,-612.0,-222.0,-2.0,52.0,-945.0,-371.0,5
1498,15.0,-243.0,-97.0,-625.0,-168.0,-11.0,59.0,-988.0,-375.0,5
1499,14.0,-255.0,-99.0,-630.0,-115.0,-21.0,45.0,-1021.0,-389.0,5
1500,7.0,-261.0,-100.0,-625.0,-58.0,-39.0,30.0,-1068.0,-394.0,5
1501,1.0,-271.0,-102.0,-609.0,-8.0,-58.0,15.0,-1090.0,-394.0,5
1502,-3.0,-277.0,-97.0,-579.0,38.0,-80.0,-6.0,-1113.0,-383.0,5
1503,-7.0,-276.0,-98.0,-534.0,76.0,-95.0,-27.0,-1126.0,-386.0,5
1504,-13.0,-280.0,-95.0,-475.0,114.0,-102.0,-47.0,-1126.0,-376.0,5
1505,-23.0,-277.0,-92.0,-409.0,149.0,-101.0,-78.0,-1125.0,-367.0,5
1506,-30.0,-274.0,-89.0,-335.0,179.0,-92.0,-109.0,-1115.0,-359.0,5
1507,-33.0,-269.0,-87.0,-257.0,203.0,-84.0,-127.0,-1100.0,-356.0,5
1508,-39.0,-260.0,-89.0,-177.0,220.0,-73.0,-151.0,-1064.0,-350.0,5
1509,-41.0,-243.0,-93.0,-99.0,229.0,-60.0,-164.0,-1032.0,-345.0,5
1510,-45.0,-247.0,-88.0,-26.0,234.0,-51.0,-171.0,-991.0,-353.0,5
1511,-46.0,-234.0,-89.0,35.0,237.0,-41.0,-178.0,-956.0,-365.0,5
1512,-50.0,-222.0,-96.0,80.0,237.0,-34.0,-181.0,-923.0,-368.0,5
1513,-50.0,-220.0,-91.0,104.0,233.0,-32.0,-181.0,-893.0,-381.0,5
1514,-48.0,-215.0,-99.0,109.0,225.0,-31.0,-183.0,-879.0,-383.0,5
1515,-48.0,-211.0,-98.0,101.0,216.0,-33.0,-182.0,-874.0,-383.0,5
1516,-44.0,-213.0,-92.0,80.0,203.0,-34.0,-175.0,-870.0,-383.0,5
1517,-48.0,-216.0,-97.0,51.0,190.0,-36.0,-178.0,-886.0,-383.0,5
1518,-47.0,-219.0,-98.0,21.0,174.0,-37.0,-171.0,-902.0,-380.0,5
1519,-45.0,-221.0,-91.0,-1.0,155.0,-39.0,-170.0,-914.0,-383.0,5
1520,-47.0,-225.0,-100.0,-18.0,135.0,-40.0,-163.0,-916.0,-389.0,5
1521,-45.0,-220.0,-101.0,-29.0,114.0,-47.0,-160.0,-920.0,-397.0,5
1522,-44.0,-226.0,-101.0,-36.0,92.0,-52.0,-155.0,-928.0,-400.0,5
1523,-45.0,-229.0,-99.0,-39.0,72.0,-56.0,-157.0,-931.0,-390.0,5
1524,-44.0,-232.0,-100.0,-40.0,51.0,-51.0,-164.0,-948.0,-390.0,5
1525,-46.0,-236.0,-96.0,-41.0,31.0,-38.0,-164.0,-959.0,-377.0,5
1526,-46.0,-239.0,-90.0,-43.0,5.0,-23.0,-166.0,-973.0,-376.0,5
1527,-47.0,-240.0,-89.0,-46.0,-24.0,-4.0,-176.0,-983.0,-372.0,5
1528,-49.0,-243.0,-95.0,-54.0,-59.0,16.0,-182.0,-987.0,-370.0,5
1529,-52.0,-244.0,-96.0,-75.0,-89.0,42.0,-191.0,-994.0,-383.0,5
1530,-51.0,-249.0,-98.0,-107.0,-117.0,70.0,-192.0,-1010.0,-389.0,5
1531,-52.0,-253.0,-97.0,-153.0,-146.0,102.0,-195.0,-1017.0,-390.0,5
1532,-52.0,-256.0,-96.0,-206.0,-177.0,133.0,-199.0,-1048.0,-393.0,5
1533,-51.0,-260.0,-99.0,-258.0,-209.0,164.0,-196.0,-1075.0,-397.0,5
1534,-48.0,-264.0,-105.0,-304.0,-236.0,196.0,-188.0,-1089.0,-407.0,5
1535,-47.0,-267.0,-105.0,-344.0,-254.0,229.0,-177.0,-1097.0,-426.0,5
1536,-44.0,-270.0,-112.0,-375.0,-254.0,262.0,-172.0,-1110.0,-438.0,5
1537,-46.0,-275.0,-117.0,-404.0,-237.0,295.0,-161.0,-1133.0,-457.0,5
1538,-43.0,-280.0,-116.0,-435.0,-201.0,328.0,-156.0,-1155.0,-475.0,5
1539,-35.0,-293.0,-118.0,-469.0,-156.0,361.0,-143.0,-1175.0,-479.0,5
1540,-31.0,-294.0,-129.0,-508.0,-115.0,390.0,-119.0,-1198.0,-501.0,5
1541,-27.0,-300.0,-132.0,-543.0,-82.0,415.0,-104.0,-1214.0,-522.0,5
1542,-28.0,-305.0,-135.0,-571.0,-59.0,432.0,-82.0,-1224.0,-546.0,5
1543,-14.0,-302.0,-137.0,-583.0,-50.0,439.0,-46.0,-1221.0,-559.0,5
1544,-3.0,-295.0,-141.0,-578.0,-52.0,434.0,0.0,-1219.0,-567.0,5
1545,10.0,-299.0,-142.0,-560.0,-63.0,420.0,44.0,-1198.0,-568.0,5
1546,15.0,-291.0,-142.0,-532.0,-75.0,401.0,76.0,-1186.0,-568.0,5
1547,15.0,-288.0,-141.0,-499.0,-83.0,378.0,80.0,-1179.0,-574.0,5
1548,11.0,-289.0,-148.0,-469.0,-90.0,358.0,63.0,-1165.0,-597.0,5
1549,-2.0,-281.0,-155.0,-449.0,-87.0,333.0,18.0,-1157.0,-617.0,5
1550,-16.0,-282.0,-170.0,-449.0,-71.0,300.0,-30.0,-1150.0,-664.0,5
1551,-31.0,-280.0,-175.0,-472.0,-41.0,266.0,-99.0,-1153.0,-716.0,5
1552,-42.0,-288.0,-189.0,-521.0,6.0,234.0,-157.0,-1168.0,-759.0,5
1553,-57.0,-298.0,-194.0,-600.0,60.0,204.0,-220.0,-1213.0,-793.0,5
1554,-69.0,-311.0,-202.0,-669.0,114.0,173.0,-262.0,-1273.0,-805.0,5
1555,-76.0,-321.0,-199.0,-729.0,164.0,137.0,-304.0,-1328.0,-805.0,5
1556,-86.0,-338.0,-199.0,-773.0,206.0,98.0,-345.0,-1382.0,-810.0,5
1557,-97.0,-350.0,-198.0,-793.0,238.0,52.0,-370.0,-1426.0,-807.0,5
1558,-100.0,-362.0,-201.0,-788.0,260.0,5.0,-400.0,-1458.0,-815.0,5
1559,-105.0,-367.0,-204.0,-766.0,279.0,-36.0,-415.0,-1476.0,-826.0,5
1560,-109.0,-370.0,-203.0,-732.0,292.0,-77.0,-422.0,-1478.0,-839.0,5
1561,-114.0,-366.0,-203.0,-684.0,289.0,-110.0,-437.0,-1465.0,-840.0,5
1562,-113.0,-354.0,-205.0,-622.0,275.0,-137.0,-436.0,-1428.0,-839.0,5
1563,-119.0,-348.0,-201.0,-550.0,255.0,-157.0,-429.0,-1383.0,-828.0,5
1564,-105.0,-322.0,-200.0,-475.0,236.0,-168.0,-412.0,-1323.0,-809.0,5
1565,-104.0,-309.0,-199.0,-400.0,219.0,-171.0,-394.0,-1246.0,-798.0,5
1566,-93.0,-290.0,-188.0,-323.0,205.0,-171.0,-360.0,-1163.0,-768.0,5
1567,-83.0,-271.0,-181.0,-249.0,193.0,-168.0,-330.0,-1098.0,-736.0,5
1568,-73.0,-248.0,-173.0,-174.0,182.0,-167.0,-287.0,-1007.0,-697.0,5
1569,-63.0,-226.0,-166.0,-103.0,173.0,-162.0,-243.0,-932.0,-670.0,5
1570,-49.0,-211.0,-161.0,-37.0,167.0,-156.0,-197.0,-853.0,-640.0,5
1571,-38.0,-191.0,-151.0,11.0,165.0,-151.0,-148.0,-783.0,-622.0,5
1572,-26.0,-173.0,-140.0,44.0,165.0,-140.0,-94.0,-725.0,-585.0,5
1573,-12.0,-164.0,-137.0,68.0,164.0,-125.0,-46.0,-682.0,-562.0,5
1574,-2.0,-161.0,-134.0,90.0,163.0,-111.0,0.0,-649.0,-537.0,5
1575,8.0,-155.0,-131.0,112.0,172.0,-99.0,46.0,-632.0,-522.0,5
1576,23.0,-155.0,-131.0,130.0,191.0,-92.0,89.0,-628.0,-527.0,5
1577,28.0,-155.0,-130.0,144.0,220.0,-90.0,117.0,-630.0,-518.0,5
1578,36.0,-160.0,-125.0,157.0,254.0,-95.0,140.0,-636.0,-509.0,5
1579,38.0,-161.0,-124.0,178.0,289.0,-100.0,151.0,-662.0,-492.0,5
1580,35.0,-170.0,-118.0,211.0,317.0,-105.0,147.0,-687.0,-474.0,5
1581,35.0,-176.0,-111.0,257.0,335.0,-106.0,140.0,-710.0,-444.0,5
1582,31.0,-182.0,-109.0,320.0,341.0,-101.0,128.0,-731.0,-434.0,5
1583,24.0,-188.0,-110.0,391.0,338.0,-96.0,103.0,-755.0,-422.0,5
1584,23.0,-191.0,-105.0,461.0,336.0,-88.0,84.0,-774.0,-420.0,5
1585,14.0,-195.0,-105.0,521.0,337.0,-72.0,52.0,-787.0,-423.0,5
1586,4.0,-197.0,-108.0,569.0,346.0,-59.0,19.0,-799.0,-425.0,5
1587,-3.0,-198.0,-107.0,607.0,361.0,-50.0,-10.0,-809.0,-425.0,5
1588,-13.0,-201.0,-107.0,639.0,380.0,-46.0,-38.0,-813.0,-423.0,5
1589,-17.0,-202.0,-106.0,663.0,399.0,-45.0,-61.0,-816.0,-421.0,5
1590,-25.0,-200.0,-102.0,678.0,418.0,-44.0,-90.0,-818.0,-416.0,5
1591,-30.0,-199.0,-104.0,684.0,430.0,-50.0,-111.0,-819.0,-419.0,5
1592,-35.0,-197.0,-101.0,680.0,438.0,-56.0,-126.0,-820.0,-409.0,5
1593,-40.0,-196.0,-101.0,668.0,441.0,-62.0,-145.0,-812.0,-401.0,5
1594,-44.0,-193.0,-97.0,655.0,438.0,-69.0,-158.0,-800.0,-387.0,5
1595,-49.0,-191.0,-92.0,641.0,426.0,-75.0,-177.0,-795.0,-380.0,5
1596,-48.0,-193.0,-93.0,626.0,408.0,-78.0,-195.0,-784.0,-373.0,5
1597,-49.0,-188.0,-94.0,611.0,385.0,-72.0,-193.0,-765.0,-379.0,5
1598,-51.0,-184.0,-98.0,590.0,360.0,-62.0,-198.0,-748.0,-383.0,5
1599,-51.0,-181.0,-96.0,566.0,337.0,-54.0,-191.0,-738.0,-389.0,5
1600,-49.0,-177.0,-100.0,541.0,312.0,-46.0,-187.0,-737.0,-395.0,5
1601,-47.0,-179.0,-103.0,518.0,287.0,-39.0,-168.0,-726.0,-403.0,5
1602,-43.0,-181.0,-101.0,503.0,261.0,-34.0,-156.0,-732.0,-409.0,5
1603,-37.0,-180.0,-103.0,498.0,240.0,-28.0,-145.0,-736.0,-404.0,5
1604,-32.0,-184.0,-100.0,508.0,224.0,-24.0,-122.0,-736.0,-406.0,5
1605,-25.0,-185.0,-96.0,528.0,214.0,-22.0,-97.0,-747.0,-402.0,5
1606,-18.0,-182.0,-93.0,551.0,211.0,-25.0,-77.0,-737.0,-389.0,5
1607,-19.0,-182.0,-98.0,578.0,212.0,-33.0,-49.0,-722.0,-382.0,5
1608,-4.0,-177.0,-96.0,600.0,214.0,-38.0,-14.0,-716.0,-382.0,5
1609,1.0,-171.0,-89.0,613.0,220.0,-51.0,8.0,-700.0,-375.0,5
1610,8.0,-169.0,-90.0,618.0,226.0,-61.0,33.0,-689.0,-365.0,5
1611,15.0,-166.0,-94.0,611.0,239.0,-74.0,59.0,-667.0,-365.0,5
1612,23.0,-165.0,-91.0,594.0,248.0,-86.0,78.0,-662.0,-367.0,5
1613,25.0,-160.0,-90.0,568.0,266.0,-98.0,93.0,-650.0,-364.0,5
1614,25.0,-158.0,-89.0,537.0,290.0,-110.0,100.0,-655.0,-362.0,5
1615,29.0,-162.0,-88.0,515.0,316.0,-127.0,112.0,-660.0,-359.0,5
1616,28.0,-161.0,-96.0,490.0,346.0,-148.0,112.0,-665.0,-365.0,5
1617,32.0,-162.0,-96.0,466.0,371.0,-172.0,113.0,-680.0,-366.0,5
1618,25.0,-170.0,-86.0,448.0,394.0,-201.0,104.0,-689.0,-365.0,5
1619,27.0,-173.0,-92.0,434.0,412.0,-229.0,95.0,-705.0,-368.0,5
1620,19.0,-178.0,-93.0,417.0,428.0,-259.0,83.0,-713.0,-364.0,5
1621,18.0,-181.0,-91.0,401.0,442.0,-289.0,78.0,-745.0,-362.0,5
1622,17.0,-186.0,-92.0,393.0,455.0,-325.0,53.0,-757.0,-362.0,5
1623,10.0,-189.0,-94.0,390.0,470.0,-353.0,41.0,-770.0,-363.0,5
1624,10.0,-193.0,-96.0,388.0,488.0,-373.0,27.0,-785.0,-367.0,5
1625,-1.0,-194.0,-96.0,378.0,509.0,-390.0,9.0,-791.0,-385.0,5
1626,-3.0,-194.0,-97.0,361.0,530.0,-401.0,-10.0,-799.0,-388.0,5
1627,-10.0,-195.0,-96.0,337.0,543.0,-413.0,-39.0,-796.0,-387.0,5
1628,-19.0,-192.0,-97.0,316.0,546.0,-417.0,-57.0,-798.0,-385.0,5
1629,-21.0,-197.0,-97.0,297.0,543.0,-416.0,-74.0,-808.0,-384.0,5
1630,-23.0,-195.0,-93.0,277.0,539.0,-410.0,-81.0,-806.0,-377.0,5
1631,-25.0,-199.0,-90.0,259.0,529.0,-400.0,-99.0,-808.0,-364.0,5
1632,-25.0,-198.0,-85.0,248.0,516.0,-383.0,-106.0,-807.0,-342.0,5
1633,-29.0,-198.0,-81.0,250.0,498.0,-364.0,-114.0,-802.0,-328.0,5
1634,-30.0,-199.0,-76.0,264.0,473.0,-341.0,-111.0,-803.0,-309.0,5
1635,-33.0,-200.0,-71.0,278.0,442.0,-319.0,-113.0,-804.0,-279.0,5
1636,-26.0,-197.0,-70.0,296.0,403.0,-301.0,-116.0,-806.0,-275.0,5
1637,-31.0,-201.0,-68.0,315.0,360.0,-286.0,-104.0,-808.0,-266.0,5
1638,-29.0,-197.0,-70.0,334.0,315.0,-265.0,-107.0,-812.0,-260.0,5
1639,-20.0,-199.0,-63.0,346.0,277.0,-247.0,-104.0,-810.0,-261.0,5
1640,-23.0,-198.0,-65.0,355.0,237.0,-226.0,-105.0,-804.0,-255.0,5
1641,-23.0,-196.0,-65.0,363.0,199.0,-202.0,-84.0,-802.0,-252.0,5
1642,-15.0,-192.0,-65.0,373.0,163.0,-183.0,-52.0,-793.0,-255.0,5
1643,-10.0,-193.0,-64.0,382.0,132.0,-170.0,-43.0,-790.0,-244.0,5
1644,-6.0,-190.0,-63.0,392.0,103.0,-161.0,-18.0,-782.0,-238.0,5
1645,-4.0,-187.0,-60.0,403.0,76.0,-155.0,-11.0,-770.0,-238.0,5
1646,3.0,-186.0,-62.0,405.0,51.0,-149.0,4.0,-756.0,-244.0,5
1647,4.0,-185.0,-66.0,394.0,31.0,-146.0,22.0,-755.0,-242.0,5
1648,10.0,-180.0,-62.0,376.0,13.0,-144.0,38.0,-748.0,-243.0,5
1649,14.0,-181.0,-60.0,353.0,-5.0,-146.0,55.0,-744.0,-247.0,5
1650,13.0,-183.0,-62.0,327.0,-16.0,-155.0,70.0,-747.0,-243.0,5
1651,22.0,-181.0,-64.0,297.0,-23.0,-166.0,86.0,-742.0,-254.0,5
1652,23.0,-183.0,-71.0,262.0,-34.0,-184.0,94.0,-751.0,-270.0,5
1653,24.0,-186.0,-70.0,219.0,-48.0,-207.0,97.0,-755.0,-278.0,5
1654,27.0,-190.0,-77.0,173.0,-60.0,-230.0,103.0,-768.0,-297.0,5
1655,26.0,-190.0,-79.0,130.0,-70.0,-255.0,103.0,-775.0,-310.0,5
1656,26.0,-193.0,-82.0,87.0,-72.0,-276.0,95.0,-792.0,-314.0,5
1657,19.0,-196.0,-86.0,47.0,-71.0,-299.0,83.0,-806.0,-336.0,5
1658,17.0,-201.0,-89.0,5.0,-66.0,-320.0,72.0,-819.0,-353.0,5
1659,16.0,-208.0,-87.0,-33.0,-63.0,-334.0,61.0,-839.0,-368.0,5
1660,10.0,-204.0,-91.0,-66.0,-62.0,-345.0,47.0,-848.0,-372.0,5
1661,7.0,-212.0,-97.0,-97.0,-69.0,-353.0,32.0,-872.0,-385.0,5
1662,3.0,-221.0,-99.0,-121.0,-80.0,-358.0,23.0,-899.0,-389.0,5
1663,3.0,-224.0,-98.0,-140.0,-91.0,-356.0,15.0,-920.0,-388.0,5
1664,-3.0,-232.0,-98.0,-153.0,-102.0,-347.0,7.0,-945.0,-385.0,5
1665,-2.0,-239.0,-95.0,-160.0,-117.0,-327.0,9.0,-977.0,-375.0,5
1666,0.0,-248.0,-95.0,-157.0,-136.0,-303.0,8.0,-999.0,-368.0,5
1667,4.0,-254.0,-87.0,-143.0,-156.0,-278.0,21.0,-1026.0,-364.0,5
1668,10.0,-255.0,-89.0,-124.0,-179.0,-248.0,43.0,-1040.0,-340.0,5
1669,13.0,-257.0,-85.0,-99.0,-204.0,-221.0,56.0,-1045.0,-328.0,5
1670,20.0,-261.0,-77.0,-70.0,-231.0,-194.0,77.0,-1049.0,-317.0,5
1671,26.0,-259.0,-73.0,-37.0,-251.0,-164.0,86.0,-1054.0,-294.0,5
1672,21.0,-253.0,-76.0,-3.0,-268.0,-142.0,91.0,-1047.0,-282.0,5
1673,26.0,-256.0,-69.0,28.0,-285.0,-122.0,101.0,-1040.0,-267.0,5
1674,26.0,-252.0,-71.0,51.0,-292.0,-103.0,101.0,-1028.0,-268.0,5
1675,30.0,-249.0,-69.0,61.0,-296.0,-88.0,104.0,-1009.0,-261.0,5
1676,29.0,-245.0,-69.0,58.0,-291.0,-75.0,111.0,-1003.0,-260.0,5
1677,30.0,-240.0,-73.0,41.0,-285.0,-68.0,108.0,-989.0,-265.0,5
1678,29.0,-238.0,-70.0,13.0,-276.0,-59.0,115.0,-982.0,-275.0,5
1679,35.0,-238.0,-74.0,-23.0,-265.0,-52.0,131.0,-985.0,-281.0,5
1680,38.0,-242.0,-73.0,-62.0,-249.0,-47.0,139.0,-989.0,-280.0,5
1681,40.0,-246.0,-72.0,-91.0,-227.0,-44.0,144.0,-1006.0,-281.0,5
1682,43.0,-244.0,-76.0,-117.0,-198.0,-42.0,159.0,-1015.0,-295.0,5
1683,42.0,-246.0,-74.0,-142.0,-167.0,-47.0,171.0,-1028.0,-303.0,5
1684,46.0,-255.0,-80.0,-163.0,-138.0,-54.0,170.0,-1045.0,-311.0,5
1685,42.0,-256.0,-83.0,-177.0,-112.0,-61.0,165.0,-1047.0,-324.0,5
1686,42.0,-257.0,-81.0,-178.0,-85.0,-64.0,156.0,-1047.0,-332.0,5
1687,39.0,-257.0,-89.0,-171.0,-60.0,-67.0,155.0,-1047.0,-347.0,5
1688,35.0,-255.0,-86.0,-161.0,-45.0,-73.0,146.0,-1045.0,-352.0,5
1689,34.0,-255.0,-90.0,-148.0,-35.0,-79.0,133.0,-1050.0,-351.0,5
1690,32.0,-254.0,-89.0,-127.0,-24.0,-83.0,125.0,-1043.0,-349.0,5
1691,29.0,-250.0,-91.0,-107.0,-13.0,-84.0,120.0,-1039.0,-348.0,5
1692,31.0,-250.0,-89.0,-87.0,-1.0,-80.0,111.0,-1022.0,-345.0,5
1693,33.0,-250.0,-88.0,-74.0,14.0,-74.0,98.0,-1010.0,-352.0,5
1694,22.0,-243.0,-85.0,-69.0,28.0,-70.0,89.0,-995.0,-340.0,5
1695,22.0,-243.0,-87.0,-70.0,39.0,-67.0,88.0,-982.0,-333.0,5
1696,20.0,-237.0,-86.0,-76.0,50.0,-62.0,80.0,-960.0,-342.0,5
1697,17.0,-233.0,-87.0,-94.0,61.0,-55.0,69.0,-941.0,-333.0,5
1698,15.0,-228.0,-84.0,-113.0,71.0,-47.0,61.0,-928.0,-335.0,5
1699,8.0,-224.0,-83.0,-133.0,74.0,-41.0,39.0,-915.0,-326.0,5
1700,7.0,-217.0,-89.0,-151.0,71.0,-29.0,36.0,-909.0,-339.0,5
1701,8.0,-219.0,-88.0,-162.0,66.0,-19.0,29.0,-892.0,-346.0,5
1702,6.0,-221.0,-87.0,-166.0,60.0,-11.0,23.0,-891.0,-337.0,5
1703,3.0,-214.0,-84.0,-162.0,56.0,0.0,16.0,-889.0,-341.0,5
1704,3.0,-214.0,-92.0,-150.0,51.0,12.0,15.0,-878.0,-360.0,5
1705,2.0,-212.0,-94.0,-140.0,39.0,23.0,13.0,-867.0,-371.0,5
1706,-2.0,-212.0,-103.0,-130.0,23.0,36.0,12.0,-869.0,-387.0,5
1707,-2.0,-212.0,-102.0,-130.0,3.0,45.0,7.0,-865.0,-406.0,5
1708,2.0,-212.0,-106.0,-131.0,-24.0,52.0,16.0,-863.0,-426.0,5
1709,-1.0,-212.0,-110.0,-134.0,-50.0,59.0,18.0,-868.0,-440.0,5
1710,7.0,-216.0,-114.0,-137.0,-80.0,66.0,37.0,-875.0,-445.0,5
1711,9.0,-220.0,-115.0,-140.0,-108.0,72.0,50.0,-898.0,-454.0,5
1712,13.0,-221.0,-118.0,-136.0,-135.0,73.0,66.0,-912.0,-475.0,5
1713,16.0,-229.0,-122.0,-137.0,-151.0,75.0,66.0,-929.0,-485.0,5
1714,16.0,-234.0,-123.0,-138.0,-170.0,71.0,72.0,-952.0,-491.0,5
1715,18.0,-241.0,-127.0,-137.0,-188.0,59.0,79.0,-971.0,-495.0,5
1716,21.0,-246.0,-125.0,-129.0,-208.0,46.0,82.0,-997.0,-496.0,5
1717,20.0,-250.0,-120.0,-114.0,-226.0,29.0,79.0,-1021.0,-482.0,5
1718,15.0,-256.0,-115.0,-89.0,-237.0,14.0,69.0,-1036.0,-470.0,5
1719,14.0,-258.0,-111.0,-55.0,-241.0,0.0,60.0,-1052.0,-445.0,5
1720,15.0,-259.0,-108.0,-13.0,-237.0,-17.0,54.0,-1053.0,-420.0,5
1721,13.0,-257.0,-98.0,35.0,-220.0,-32.0,56.0,-1061.0,-394.0,5
1722,12.0,-261.0,-93.0,81.0,-192.0,-46.0,47.0,-1065.0,-377.0,5
1723,10.0,-262.0,-91.0,123.0,-154.0,-65.0,44.0,-1071.0,-363.0,5
1724,14.0,-263.0,-91.0,150.0,-110.0,-85.0,50.0,-1078.0,-344.0,5
1725,16.0,-264.0,-81.0,160.0,-63.0,-113.0,63.0,-1082.0,-333.0,5
1726,21.0,-265.0,-83.0,158.0,-22.0,-152.0,66.0,-1099.0,-309.0,5
1727,19.0,-274.0,-82.0,162.0,20.0,-195.0,69.0,-1113.0,-321.0,5
1728,17.0,-272.0,-85.0,153.0,67.0,-241.0,67.0,-1120.0,-338.0,5
1729,8.0,-277.0,-92.0,127.0,105.0,-284.0,38.0,-1124.0,-361.0,5
1730,6.0,-283.0,-92.0,87.0,131.0,-317.0,38.0,-1138.0,-367.0,5
1731,5.0,-283.0,-96.0,46.0,131.0,-345.0,30.0,-1158.0,-384.0,5
1732,12.0,-287.0,-103.0,13.0,123.0,-381.0,48.0,-1161.0,-409.0,5
1733,8.0,-291.0,-107.0,-14.0,104.0,-415.0,42.0,-1173.0,-418.0,5
1734,-2.0,-295.0,-106.0,-18.0,72.0,-437.0,12.0,-1189.0,-431.0,5
1735,-10.0,-295.0,-120.0,1.0,25.0,-441.0,-22.0,-1198.0,-455.0,5
1736,-14.0,-302.0,-113.0,30.0,-10.0,-433.0,-41.0,-1228.0,-457.0,5
1737,-10.0,-311.0,-103.0,68.0,-29.0,-421.0,-39.0,-1241.0,-423.0,5
1738,-8.0,-312.0,-101.0,118.0,-34.0,-405.0,-31.0,-1273.0,-389.0,5
1739,-12.0,-315.0,-98.0,174.0,-36.0,-392.0,-30.0,-1275.0,-387.0,5
1740,-10.0,-317.0,-94.0,220.0,-43.0,-383.0,-36.0,-1280.0,-371.0,5
1741,-10.0,-317.0,-91.0,255.0,-43.0,-369.0,-43.0,-1289.0,-372.0,5
1742,-12.0,-317.0,-101.0,279.0,-31.0,-353.0,-45.0,-1293.0,-396.0,5
1743,-14.0,-317.0,-111.0,280.0,-11.0,-330.0,-52.0,-1285.0,-425.0,5
1744,-14.0,-318.0,-118.0,257.0,10.0,-302.0,-55.0,-1284.0,-460.0,5
1745,-10.0,-317.0,-121.0,207.0,28.0,-275.0,-44.0,-1303.0,-479.0,5
1746,-4.0,-322.0,-120.0,136.0,44.0,-254.0,-18.0,-1325.0,-487.0,5
1747,-4.0,-328.0,-123.0,53.0,54.0,-244.0,-1.0,-1345.0,-481.0,5
1748,2.0,-336.0,-118.0,-32.0,55.0,-242.0,22.0,-1381.0,-486.0,5
1749,3.0,-343.0,-125.0,-119.0,42.0,-245.0,20.0,-1402.0,-492.0,5
1750,3.0,-343.0,-132.0,-205.0,17.0,-240.0,21.0,-1408.0,-522.0,5
1751,2.0,-341.0,-139.0,-288.0,-17.0,-224.0,33.0,-1401.0,-558.0,5
1752,9.0,-343.0,-145.0,-354.0,-48.0,-202.0,38.0,-1400.0,-592.0,5
1753,14.0,-336.0,-154.0,-396.0,-73.0,-176.0,57.0,-1376.0,-614.0,5
1754,21.0,-333.0,-161.0,-407.0,-90.0,-137.0,96.0,-1355.0,-630.0,5
1755,39.0,-328.0,-163.0,-387.0,-95.0,-89.0,146.0,-1330.0,-640.0,5
1756,55.0,-319.0,-158.0,-346.0,-90.0,-41.0,187.0,-1295.0,-645.0,5
1757,55.0,-312.0,-155.0,-298.0,-76.0,0.0,228.0,-1267.0,-632.0,5
1758,65.0,-307.0,-159.0,-258.0,-63.0,39.0,269.0,-1237.0,-634.0,5
1759,70.0,-304.0,-153.0,-233.0,-52.0,75.0,297.0,-1226.0,-629.0,5
1760,74.0,-297.0,-153.0,-214.0,-50.0,105.0,309.0,-1221.0,-624.0,5
1761,76.0,-297.0,-151.0,-200.0,-51.0,127.0,315.0,-1201.0,-620.0,5
1762,78.0,-291.0,-149.0,-190.0,-57.0,151.0,311.0,-1180.0,-608.0,5
1763,72.0,-282.0,-154.0,-186.0,-68.0,179.0,305.0,-1157.0,-610.0,5
1764,71.0,-282.0,-153.0,-178.0,-84.0,213.0,291.0,-1130.0,-610.0,5
1765,65.0,-269.0,-143.0,-173.0,-96.0,248.0,271.0,-1094.0,-598.0,5
1766,61.0,-259.0,-143.0,-169.0,-106.0,285.0,246.0,-1060.0,-579.0,5
1767,49.0,-246.0,-142.0,-170.0,-116.0,328.0,222.0,-1014.0,-569.0,5
1768,52.0,-239.0,-135.0,-175.0,-129.0,372.0,191.0,-980.0,-557.0,5
1769,40.0,-228.0,-137.0,-182.0,-144.0,412.0,165.0,-937.0,-552.0,5
1770,30.0,-224.0,-133.0,-191.0,-156.0,446.0,135.0,-918.0,-551.0,5
1771,20.0,-214.0,-133.0,-202.0,-174.0,471.0,101.0,-890.0,-530.0,5
1772,18.0,-212.0,-134.0,-211.0,-195.0,488.0,73.0,-862.0,-525.0,5
1773,10.0,-208.0,-130.0,-216.0,-220.0,497.0,47.0,-853.0,-513.0,5
1774,1.0,-207.0,-119.0,-215.0,-241.0,505.0,21.0,-842.0,-486.0,5
1775,-1.0,-204.0,-112.0,-200.0,-250.0,511.0,4.0,-834.0,-457.0,5
1776,-4.0,-207.0,-107.0,-174.0,-246.0,508.0,-9.0,-826.0,-425.0,5
1777,-4.0,-202.0,-104.0,-141.0,-231.0,500.0,-18.0,-828.0,-402.0,5
1778,-4.0,-205.0,-100.0,-105.0,-205.0,484.0,-29.0,-820.0,-395.0,5
1779,-4.0,-209.0,-99.0,-67.0,-173.0,460.0,-25.0,-820.0,-388.0,5
1780,-4.0,-198.0,-95.0,-28.0,-133.0,433.0,-22.0,-809.0,-368.0,5
1781,-2.0,-198.0,-94.0,15.0,-91.0,403.0,-11.0,-804.0,-376.0,5
1782,4.0,-197.0,-94.0,59.0,-44.0,371.0,0.0,-798.0,-363.0,5
1783,6.0,-193.0,-87.0,109.0,6.0,337.0,20.0,-784.0,-345.0,5
1784,8.0,-192.0,-93.0,169.0,47.0,305.0,35.0,-775.0,-367.0,5
1785,13.0,-190.0,-95.0,212.0,91.0,275.0,46.0,-756.0,-373.0,5
1786,15.0,-179.0,-96.0,242.0,128.0,248.0,58.0,-740.0,-387.0,5
1787,12.0,-178.0,-100.0,253.0,153.0,230.0,65.0,-721.0,-387.0,5
1788,18.0,-176.0,-100.0,251.0,164.0,221.0,70.0,-713.0,-398.0,5
1789,18.0,-176.0,-99.0,238.0,165.0,216.0,71.0,-712.0,-397.0,5
1790,13.0,-166.0,-107.0,217.0,160.0,214.0,85.0,-709.0,-400.0,5
1791,18.0,-175.0,-104.0,190.0,146.0,216.0,81.0,-708.0,-412.0,5
1792,17.0,-175.0,-105.0,161.0,130.0,225.0,73.0,-716.0,-423.0,5
1793,16.0,-179.0,-105.0,130.0,115.0,236.0,70.0,-728.0,-423.0,5
1794,14.0,-180.0,-107.0,99.0,105.0,249.0,72.0,-740.0,-422.0,5
1795,15.0,-186.0,-110.0,74.0,93.0,260.0,72.0,-750.0,-438.0,5
1796,13.0,-187.0,-107.0,54.0,86.0,269.0,59.0,-765.0,-428.0,5
1797,12.0,-192.0,-109.0,41.0,77.0,277.0,47.0,-782.0,-438.0,5
1798,8.0,-195.0,-106.0,31.0,70.0,290.0,30.0,-786.0,-417.0,5
1799,3.0,-191.0,-102.0,29.0,62.0,298.0,15.0,-797.0,-401.0,5
1800,-2.0,-197.0,-95.0,37.0,53.0,310.0,6.0,-803.0,-385.0,5
1801,-5.0,-193.0,-95.0,55.0,39.0,319.0,-8.0,-803.0,-381.0,5
1802,-8.0,-200.0,-91.0,82.0,21.0,329.0,-30.0,-804.0,-366.0,5
1803,-18.0,-197.0,-93.0,110.0,1.0,344.0,-62.0,-793.0,-363.0,5
1804,-22.0,-195.0,-90.0,142.0,-24.0,358.0,-77.0,-784.0,-369.0,5
1805,-25.0,-190.0,-94.0,173.0,-51.0,370.0,-90.0,-780.0,-368.0,5
1806,-24.0,-188.0,-90.0,199.0,-84.0,377.0,-88.0,-762.0,-361.0,5
1807,-26.0,-184.0,-90.0,223.0,-115.0,382.0,-98.0,-750.0,-359.0,5
1808,-24.0,-178.0,-85.0,241.0,-141.0,389.0,-101.0,-733.0,-349.0,5
1809,-29.0,-174.0,-87.0,254.0,-163.0,401.0,-110.0,-713.0,-346.0,5
1810,-29.0,-170.0,-84.0,261.0,-179.0,408.0,-108.0,-700.0,-336.0,5
1811,-32.0,-169.0,-84.0,264.0,-190.0,414.0,-119.0,-691.0,-334.0,5
1812,-35.0,-166.0,-79.0,266.0,-203.0,421.0,-134.0,-679.0,-335.0,5
1813,-38.0,-163.0,-82.0,270.0,-218.0,430.0,-147.0,-667.0,-331.0,5
1814,-45.0,-160.0,-79.0,274.0,-234.0,434.0,-162.0,-661.0,-329.0,5
1815,-45.0,-163.0,-82.0,283.0,-253.0,436.0,-171.0,-649.0,-324.0,5
1816,-48.0,-157.0,-82.0,293.0,-276.0,437.0,-185.0,-642.0,-337.0,5
1817,-50.0,-156.0,-88.0,301.0,-302.0,433.0,-183.0,-644.0,-341.0,5
1818,-52.0,-155.0,-83.0,302.0,-324.0,430.0,-194.0,-640.0,-340.0,5
1819,-53.0,-160.0,-90.0,291.0,-348.0,424.0,-196.0,-650.0,-354.0,5
1820,-48.0,-160.0,-92.0,271.0,-366.0,415.0,-190.0,-660.0,-352.0,5
1821,-48.0,-162.0,-86.0,248.0,-379.0,405.0,-182.0,-665.0,-359.0,5
1822,-50.0,-165.0,-87.0,223.0,-382.0,395.0,-190.0,-686.0,-354.0,5
1823,-52.0,-166.0,-87.0,203.0,-377.0,382.0,-192.0,-699.0,-359.0,5
1824,-44.0,-173.0,-87.0,191.0,-367.0,372.0,-176.0,-714.0,-353.0,5
1825,-43.0,-178.0,-89.0,181.0,-354.0,359.0,-164.0,-731.0,-359.0,5
1826,-37.0,-184.0,-90.0,167.0,-337.0,339.0,-145.0,-752.0,-356.0,5
1827,-32.0,-191.0,-88.0,155.0,-317.0,313.0,-134.0,-765.0,-356.0,5
1828,-26.0,-191.0,-89.0,144.0,-290.0,284.0,-108.0,-771.0,-350.0,5
1829,-22.0,-191.0,-87.0,137.0,-266.0,255.0,-81.0,-784.0,-337.0,5
1830,-16.0,-193.0,-87.0,131.0,-238.0,223.0,-59.0,-785.0,-349.0,5
1831,-17.0,-192.0,-87.0,125.0,-211.0,195.0,-57.0,-791.0,-347.0,5
1832,-10.0,-195.0,-85.0,115.0,-184.0,172.0,-47.0,-796.0,-340.0,5
1833,-14.0,-193.0,-87.0,101.0,-162.0,156.0,-46.0,-793.0,-350.0,5
1834,-15.0,-194.0,-91.0,86.0,-149.0,143.0,-46.0,-799.0,-345.0,5
1835,-14.0,-194.0,-87.0,81.0,-139.0,132.0,-46.0,-802.0,-339.0,5
1836,-10.0,-197.0,-83.0,86.0,-135.0,122.0,-44.0,-801.0,-346.0,5
1837,-15.0,-196.0,-90.0,98.0,-139.0,113.0,-42.0,-800.0,-346.0,5
1838,-16.0,-194.0,-89.0,117.0,-145.0,108.0,-56.0,-787.0,-353.0,5
1839,-17.0,-189.0,-91.0,138.0,-152.0,101.0,-57.0,-774.0,-362.0,5
1840,-18.0,-190.0,-88.0,160.0,-158.0,95.0,-68.0,-766.0,-367.0,5
1841,-21.0,-187.0,-90.0,177.0,-162.0,84.0,-79.0,-755.0,-368.0,5
1842,-24.0,-185.0,-89.0,188.0,-168.0,79.0,-90.0,-746.0,-362.0,5
1843,-29.0,-188.0,-88.0,193.0,-171.0,80.0,-108.0,-754.0,-363.0,5
1844,-31.0,-189.0,-86.0,190.0,-173.0,78.0,-118.0,-770.0,-359.0,5
1845,-36.0,-194.0,-86.0,181.0,-179.0,73.0,-122.0,-790.0,-350.0,5
1846,-35.0,-199.0,-86.0,167.0,-187.0,66.0,-132.0,-808.0,-340.0,5
1847,-36.0,-209.0,-85.0,151.0,-204.0,56.0,-132.0,-839.0,-330.0,5
1848,-38.0,-211.0,-79.0,143.0,-221.0,44.0,-139.0,-866.0,-320.0,5
1849,-37.0,-218.0,-82.0,137.0,-237.0,26.0,-142.0,-895.0,-329.0,5
1850,-38.0,-226.0,-80.0,132.0,-246.0,10.0,-146.0,-921.0,-317.0,5
1851,-38.0,-230.0,-79.0,132.0,-252.0,-2.0,-153.0,-936.0,-318.0,5
1852,-38.0,-233.0,-79.0,137.0,-255.0,-9.0,-147.0,-952.0,-318.0,5
1853,-39.0,-236.0,-82.0,142.0,-255.0,-18.0,-148.0,-966.0,-326.0,5
1854,-39.0,-240.0,-84.0,144.0,-258.0,-27.0,-150.0,-970.0,-323.0,5
1855,-43.0,-239.0,-80.0,140.0,-265.0,-38.0,-160.0,-966.0,-322.0,5
1856,-38.0,-233.0,-78.0,132.0,-269.0,-52.0,-160.0,-971.0,-333.0,5
1857,-43.0,-232.0,-80.0,125.0,-269.0,-62.0,-154.0,-961.0,-321.0,5
1858,-42.0,-230.0,-88.0,116.0,-265.0,-73.0,-158.0,-942.0,-331.0,5
1859,-41.0,-226.0,-86.0,103.0,-256.0,-87.0,-153.0,-926.0,-336.0,5
1860,-38.0,-224.0,-86.0,90.0,-246.0,-101.0,-141.0,-907.0,-339.0,5
1861,-33.0,-219.0,-87.0,76.0,-235.0,-115.0,-125.0,-897.0,-336.0,5
1862,-31.0,-214.0,-88.0,63.0,-226.0,-126.0,-118.0,-878.0,-345.0,5
1863,-26.0,-209.0,-90.0,49.0,-217.0,-139.0,-111.0,-862.0,-347.0,5
1864,-26.0,-204.0,-87.0,34.0,-211.0,-154.0,-98.0,-841.0,-353.0,5
1865,-18.0,-205.0,-92.0,17.0,-203.0,-168.0,-80.0,-839.0,-357.0,5
1866,-12.0,-208.0,-82.0,-1.0,-194.0,-179.0,-75.0,-837.0,-359.0,5
1867,-15.0,-209.0,-85.0,-23.0,-185.0,-182.0,-70.0,-847.0,-358.0,5
1868,-17.0,-211.0,-84.0,-39.0,-180.0,-178.0,-62.0,-863.0,-361.0,5
1869,-14.0,-218.0,-87.0,-50.0,-175.0,-165.0,-51.0,-885.0,-352.0,5
1870,-13.0,-222.0,-87.0,-56.0,-170.0,-158.0,-59.0,-903.0,-340.0,5
1871,-13.0,-230.0,-83.0,-51.0,-166.0,-149.0,-59.0,-924.0,-334.0,5
1872,-16.0,-233.0,-87.0,-38.0,-163.0,-139.0,-65.0,-942.0,-330.0,5
1873,-14.0,-238.0,-83.0,-18.0,-157.0,-128.0,-62.0,-951.0,-336.0,5
1874,-16.0,-235.0,-83.0,5.0,-144.0,-120.0,-62.0,-955.0,-341.0,5
1875,-20.0,-234.0,-86.0,29.0,-125.0,-116.0,-75.0,-952.0,-339.0,5
1876,-21.0,-232.0,-86.0,44.0,-101.0,-113.0,-82.0,-949.0,-343.0,5
1877,-14.0,-238.0,-86.0,50.0,-72.0,-101.0,-91.0,-939.0,-343.0,5
1878,-27.0,-226.0,-87.0,50.0,-41.0,-93.0,-97.0,-940.0,-346.0,5
1879,-26.0,-228.0,-86.0,39.0,-18.0,-84.0,-104.0,-935.0,-346.0,5
1880,-27.0,-227.0,-87.0,18.0,2.0,-72.0,-107.0,-930.0,-341.0,5
1881,-26.0,-225.0,-85.0,-8.0,13.0,-59.0,-108.0,-922.0,-345.0,5
1882,-27.0,-224.0,-84.0,-38.0,15.0,-53.0,-99.0,-917.0,-343.0,5
1883,-27.0,-223.0,-90.0,-69.0,19.0,-46.0,-96.0,-916.0,-353.0,5
1884,-20.0,-222.0,-86.0,-99.0,25.0,-36.0,-90.0,-908.0,-350.0,5
1885,-22.0,-227.0,-86.0,-123.0,31.0,-29.0,-92.0,-907.0,-352.0,5
1886,-25.0,-221.0,-90.0,-141.0,37.0,-27.0,-85.0,-901.0,-355.0,5
1887,-23.0,-217.0,-92.0,-151.0,44.0,-25.0,-88.0,-898.0,-355.0,5
1888,-16.0,-217.0,-94.0,-155.0,55.0,-18.0,-83.0,-892.0,-365.0,5
1889,-22.0,-218.0,-93.0,-158.0,70.0,-11.0,-87.0,-892.0,-364.0,5
1890,-18.0,-219.0,-94.0,-162.0,85.0,-2.0,-77.0,-887.0,-370.0,5
1891,-17.0,-219.0,-94.0,-168.0,100.0,8.0,-76.0,-890.0,-378.0,5
1892,-16.0,-218.0,-92.0,-175.0,113.0,19.0,-70.0,-895.0,-380.0,5
1893,-17.0,-219.0,-98.0,-186.0,125.0,25.0,-62.0,-906.0,-382.0,5
1894,-13.0,-219.0,-101.0,-199.0,139.0,35.0,-62.0,-908.0,-396.0,5
1895,-15.0,-221.0,-105.0,-214.0,155.0,39.0,-57.0,-904.0,-414.0,5
1896,-21.0,-221.0,-107.0,-237.0,167.0,40.0,-54.0,-906.0,-428.0,5
1897,-14.0,-220.0,-114.0,-266.0,181.0,38.0,-59.0,-905.0,-448.0,5
1898,-20.0,-220.0,-117.0,-299.0,189.0,37.0,-69.0,-904.0,-473.0,5
1899,-16.0,-227.0,-118.0,-333.0,194.0,38.0,-92.0,-911.0,-486.0,5
1900,-30.0,-223.0,-123.0,-370.0,196.0,40.0,-104.0,-916.0,-491.0,5
1901,-30.0,-226.0,-125.0,-400.0,197.0,41.0,-116.0,-928.0,-486.0,5
1902,-33.0,-232.0,-120.0,-425.0,196.0,46.0,-127.0,-943.0,-484.0,5
1903,-40.0,-235.0,-115.0,-437.0,192.0,52.0,-144.0,-965.0,-482.0,5
1904,-41.0,-240.0,-116.0,-436.0,186.0,60.0,-155.0,-982.0,-460.0,5
1905,-48.0,-243.0,-112.0,-420.0,176.0,70.0,-171.0,-990.0,-456.0,5
1906,-51.0,-250.0,-111.0,-393.0,163.0,85.0,-193.0,-997.0,-450.0,5
1907,-50.0,-248.0,-110.0,-365.0,153.0,106.0,-199.0,-996.0,-448.0,5
1908,-57.0,-245.0,-112.0,-329.0,142.0,117.0,-218.0,-982.0,-449.0,5
1909,-61.0,-241.0,-111.0,-289.0,128.0,122.0,-229.0,-975.0,-442.0,5
1910,-64.0,-234.0,-113.0,-246.0,122.0,127.0,-237.0,-959.0,-445.0,5
1911,-62.0,-232.0,-108.0,-207.0,116.0,135.0,-239.0,-944.0,-432.0,5
1912,-64.0,-226.0,-107.0,-171.0,108.0,138.0,-238.0,-927.0,-428.0,5
1913,-62.0,-223.0,-104.0,-142.0,96.0,139.0,-238.0,-908.0,-423.0,5
1914,-58.0,-218.0,-104.0,-119.0,76.0,136.0,-232.0,-898.0,-413.0,5
1915,-57.0,-216.0,-103.0,-108.0,58.0,129.0,-222.0,-885.0,-405.0,5
1916,-54.0,-211.0,-98.0,-105.0,37.0,120.0,-214.0,-862.0,-398.0,5
1917,-50.0,-207.0,-98.0,-110.0,15.0,110.0,-202.0,-848.0,-398.0,5
1918,-50.0,-203.0,-97.0,-122.0,-3.0,102.0,-194.0,-835.0,-387.0,5
1919,-50.0,-199.0,-100.0,-141.0,-20.0,97.0,-181.0,-817.0,-388.0,5
1920,-45.0,-197.0,-95.0,-161.0,-33.0,95.0,-170.0,-817.0,-395.0,5
1921,-41.0,-201.0,-88.0,-182.0,-41.0,93.0,-161.0,-814.0,-396.0,5
1922,-44.0,-200.0,-103.0,-201.0,-45.0,94.0,-161.0,-816.0,-396.0,5
1923,-37.0,-204.0,-102.0,-218.0,-49.0,93.0,-154.0,-824.0,-402.0,5
1924,-38.0,-203.0,-103.0,-229.0,-48.0,93.0,-141.0,-833.0,-412.0,5
1925,-35.0,-208.0,-102.0,-238.0,-45.0,91.0,-138.0,-848.0,-417.0,5
1926,-35.0,-207.0,-110.0,-243.0,-40.0,90.0,-120.0,-859.0,-422.0,5
1927,-30.0,-215.0,-106.0,-248.0,-32.0,87.0,-112.0,-871.0,-422.0,5
1928,-25.0,-217.0,-108.0,-253.0,-24.0,86.0,-110.0,-887.0,-436.0,5
1929,-29.0,-220.0,-113.0,-262.0,-17.0,85.0,-107.0,-901.0,-444.0,5
1930,-30.0,-224.0,-110.0,-273.0,-8.0,86.0,-102.0,-914.0,-447.0,5
1931,-27.0,-225.0,-111.0,-282.0,0.0,89.0,-104.0,-927.0,-447.0,5
1932,-31.0,-227.0,-116.0,-294.0,8.0,95.0,-108.0,-933.0,-448.0,5
1933,-28.0,-235.0,-112.0,-305.0,19.0,103.0,-115.0,-953.0,-454.0,5
1934,-30.0,-239.0,-111.0,-317.0,25.0,110.0,-120.0,-962.0,-448.0,5
1935,-32.0,-240.0,-114.0,-326.0,29.0,123.0,-119.0,-983.0,-447.0,5
1936,-36.0,-244.0,-115.0,-336.0,32.0,136.0,-125.0,-994.0,-449.0,5
1937,-35.0,-252.0,-110.0,-341.0,35.0,149.0,-135.0,-1008.0,-450.0,5
1938,-37.0,-252.0,-114.0,-343.0,37.0,164.0,-137.0,-1015.0,-461.0,5
1939,-37.0,-253.0,-115.0,-341.0,39.0,176.0,-138.0,-1014.0,-475.0,5
1940,-37.0,-247.0,-120.0,-339.0,37.0,189.0,-151.0,-1010.0,-490.0,5
1941,-47.0,-244.0,-130.0,-335.0,36.0,198.0,-167.0,-995.0,-509.0,5
1942,-52.0,-255.0,-139.0,-332.0,31.0,206.0,-184.0,-1016.0,-527.0,5
1943,-53.0,-244.0,-131.0,-344.0,26.0,240.0,-191.0,-986.0,-526.0,5
1944,-58.0,-243.0,-135.0,-343.0,18.0,233.0,-203.0,-990.0,-542.0,5
1945,-57.0,-249.0,-135.0,-335.0,3.0,225.0,-216.0,-1000.0,-551.0,5
1946,-57.0,-249.0,-139.0,-327.0,-8.0,227.0,-212.0,-1009.0,-570.0,5
1947,-59.0,-254.0,-142.0,-319.0,-15.0,227.0,-212.0,-1028.0,-573.0,5
1948,-56.0,-259.0,-148.0,-314.0,-21.0,230.0,-215.0,-1062.0,-591.0,5
1949,-56.0,-265.0,-150.0,-308.0,-24.0,238.0,-212.0,-1100.0,-596.0,5
1950,-50.0,-279.0,-148.0,-304.0,-25.0,247.0,-197.0,-1138.0,-599.0,5
1951,-50.0,-289.0,-144.0,-297.0,-23.0,259.0,-179.0,-1172.0,-600.0,5
1952,-42.0,-300.0,-149.0,-293.0,-18.0,268.0,-157.0,-1212.0,-600.0,5
1953,-39.0,-309.0,-151.0,-290.0,-8.0,280.0,-137.0,-1264.0,-607.0,5
1954,-29.0,-317.0,-152.0,-289.0,5.0,300.0,-106.0,-1304.0,-626.0,5
1955,-29.0,-320.0,-158.0,-294.0,22.0,327.0,-104.0,-1296.0,-630.0,5
1956,-26.0,-318.0,-166.0,-279.0,31.0,313.0,-96.0,-1290.0,-666.0,5
1957,-26.0,-311.0,-174.0,-253.0,35.0,295.0,-93.0,-1270.0,-696.0,5
1958,-31.0,-302.0,-179.0,-222.0,39.0,271.0,-97.0,-1241.0,-728.0,5
1959,-34.0,-303.0,-185.0,-191.0,36.0,239.0,-112.0,-1220.0,-746.0,5
1960,-38.0,-300.0,-191.0,-166.0,33.0,211.0,-134.0,-1212.0,-753.0,5
1961,-45.0,-304.0,-187.0,-151.0,28.0,187.0,-155.0,-1214.0,-749.0,5
1962,-47.0,-307.0,-187.0,-147.0,23.0,167.0,-171.0,-1232.0,-754.0,5
1963,-55.0,-307.0,-185.0,-152.0,23.0,146.0,-198.0,-1240.0,-749.0,5
1964,-55.0,-312.0,-185.0,-165.0,34.0,128.0,-212.0,-1269.0,-752.0,5
1965,-63.0,-309.0,-186.0,-186.0,58.0,112.0,-236.0,-1269.0,-756.0,5
1966,-69.0,-306.0,-190.0,-211.0,94.0,98.0,-253.0,-1268.0,-763.0,5
1967,-70.0,-308.0,-197.0,-243.0,141.0,80.0,-269.0,-1272.0,-788.0,5
1968,-73.0,-306.0,-203.0,-284.0,191.0,59.0,-287.0,-1246.0,-811.0,5
1969,-76.0,-304.0,-208.0,-329.0,233.0,34.0,-293.0,-1233.0,-838.0,5
1970,-77.0,-296.0,-214.0,-370.0,267.0,4.0,-295.0,-1205.0,-851.0,5
1971,-74.0,-292.0,-209.0,-400.0,295.0,-28.0,-284.0,-1181.0,-868.0,5
1972,-73.0,-284.0,-210.0,-418.0,313.0,-74.0,-283.0,-1158.0,-862.0,5
1973,-75.0,-277.0,-209.0,-420.0,327.0,-113.0,-284.0,-1119.0,-859.0,5
1974,-75.0,-263.0,-211.0,-413.0,331.0,-151.0,-283.0,-1092.0,-848.0,5
1975,-66.0,-262.0,-207.0,-401.0,340.0,-186.0,-274.0,-1058.0,-845.0,5
1976,-68.0,-247.0,-204.0,-391.0,352.0,-213.0,-265.0,-1016.0,-839.0,5
1977,-66.0,-241.0,-197.0,-381.0,363.0,-233.0,-242.0,-977.0,-811.0,5
1978,-58.0,-230.0,-192.0,-373.0,368.0,-244.0,-220.0,-948.0,-777.0,5
1979,-51.0,-222.0,-186.0,-365.0,365.0,-251.0,-197.0,-900.0,-747.0,5
